sess_num;sess_date;sess_time;seq_type;sess_type;seq_train;sequence;cumulative_trial;trial;keystroke;key_from;key_to;RT
1;2018-02-28;09:33:54.772000;type1;training;train;1 2 - 2 - 2 - 4 - 2 3;1;1;0;0;1;1834.704
1;2018-02-28;09:33:54.772000;type1;training;train;1 2 - 2 - 2 - 4 - 2 3;1;1;1;1;2;21.390
1;2018-02-28;09:33:54.772000;type1;training;train;1 2 - 2 - 2 - 4 - 2 3;1;1;2;2;2;473.290
1;2018-02-28;09:33:54.772000;type1;training;train;1 2 - 2 - 2 - 4 - 2 3;1;1;3;2;2;538.833
1;2018-02-28;09:33:54.772000;type1;training;train;1 2 - 2 - 2 - 4 - 2 3;1;1;4;2;4;594.519
1;2018-02-28;09:33:54.772000;type1;training;train;1 2 - 2 - 2 - 4 - 2 3;2;1;0;0;1 2;1174.642
1;2018-02-28;09:33:54.772000;type1;training;train;1 2 - 2 - 2 - 4 - 2 3;2;1;1;1 2;2;537.575
1;2018-02-28;09:33:54.772000;type1;training;train;1 2 - 2 - 2 - 4 - 2 3;2;1;2;2;2;540.542
1;2018-02-28;09:33:54.772000;type1;training;train;1 2 - 2 - 2 - 4 - 2 3;2;1;3;2;4;508.080
1;2018-02-28;09:33:54.772000;type1;training;train;1 2 - 2 - 2 - 4 - 2 3;2;1;4;4;2 3;532.910
1;2018-02-28;09:33:54.772000;type1;training;train;1 2 - 2 - 2 - 4 - 2 3;3;2;0;0;1 2;1805.871
1;2018-02-28;09:33:54.772000;type1;training;train;1 2 - 2 - 2 - 4 - 2 3;3;2;1;1 2;2;502.151
1;2018-02-28;09:33:54.772000;type1;training;train;1 2 - 2 - 2 - 4 - 2 3;3;2;2;2;2;427.178
1;2018-02-28;09:33:54.772000;type1;training;train;1 2 - 2 - 2 - 4 - 2 3;3;2;3;2;4;405.704
1;2018-02-28;09:33:54.772000;type1;training;train;1 2 - 2 - 2 - 4 - 2 3;3;2;4;4;2 3;353.156
1;2018-02-28;09:33:54.772000;type1;training;train;1 2 - 2 - 2 - 4 - 2 3;4;3;0;0;1 2;841.481
1;2018-02-28;09:33:54.772000;type1;training;train;1 2 - 2 - 2 - 4 - 2 3;4;3;1;1 2;2;366.396
1;2018-02-28;09:33:54.772000;type1;training;train;1 2 - 2 - 2 - 4 - 2 3;4;3;2;2;2;367.592
1;2018-02-28;09:33:54.772000;type1;training;train;1 2 - 2 - 2 - 4 - 2 3;4;3;3;2;4;303.818
1;2018-02-28;09:33:54.772000;type1;training;train;1 2 - 2 - 2 - 4 - 2 3;4;3;4;4;2 3;389.798
1;2018-02-28;09:33:54.772000;type1;training;train;1 2 - 2 - 2 - 4 - 2 3;5;4;0;0;1 2;590.888
1;2018-02-28;09:33:54.772000;type1;training;train;1 2 - 2 - 2 - 4 - 2 3;5;4;1;1 2;2;299.307
1;2018-02-28;09:33:54.772000;type1;training;train;1 2 - 2 - 2 - 4 - 2 3;5;4;2;2;2;274.911
1;2018-02-28;09:33:54.772000;type1;training;train;1 2 - 2 - 2 - 4 - 2 3;5;4;3;2;4;294.220
1;2018-02-28;09:33:54.772000;type1;training;train;1 2 - 2 - 2 - 4 - 2 3;5;4;4;4;2 3;291.446
1;2018-02-28;09:33:54.772000;type1;training;train;1 2 - 2 - 2 - 4 - 2 3;6;5;0;0;1 2;731.490
1;2018-02-28;09:33:54.772000;type1;training;train;1 2 - 2 - 2 - 4 - 2 3;6;5;1;1 2;2;286.680
1;2018-02-28;09:33:54.772000;type1;training;train;1 2 - 2 - 2 - 4 - 2 3;6;5;2;2;2;225.143
1;2018-02-28;09:33:54.772000;type1;training;train;1 2 - 2 - 2 - 4 - 2 3;6;5;3;2;4;244.793
1;2018-02-28;09:33:54.772000;type1;training;train;1 2 - 2 - 2 - 4 - 2 3;6;5;4;4;2 3;222.412
1;2018-02-28;09:33:54.772000;type1;training;train;2 - 1 4 - 2 - 1 - 1 4;1;1;0;0;2;903.002
1;2018-02-28;09:33:54.772000;type1;training;train;2 - 1 4 - 2 - 1 - 1 4;1;1;1;2;1 4;475.354
1;2018-02-28;09:33:54.772000;type1;training;train;2 - 1 4 - 2 - 1 - 1 4;1;1;2;1 4;2;461.400
1;2018-02-28;09:33:54.772000;type1;training;train;2 - 1 4 - 2 - 1 - 1 4;1;1;3;2;1;394.762
1;2018-02-28;09:33:54.772000;type1;training;train;2 - 1 4 - 2 - 1 - 1 4;1;1;4;1;1 4;508.819
1;2018-02-28;09:33:54.772000;type1;training;train;2 - 1 4 - 2 - 1 - 1 4;2;2;0;0;2;1039.577
1;2018-02-28;09:33:54.772000;type1;training;train;2 - 1 4 - 2 - 1 - 1 4;2;2;1;2;1 4;328.126
1;2018-02-28;09:33:54.772000;type1;training;train;2 - 1 4 - 2 - 1 - 1 4;2;2;2;1 4;2;346.188
1;2018-02-28;09:33:54.772000;type1;training;train;2 - 1 4 - 2 - 1 - 1 4;2;2;3;2;1;315.826
1;2018-02-28;09:33:54.772000;type1;training;train;2 - 1 4 - 2 - 1 - 1 4;2;2;4;1;1 4;293.845
1;2018-02-28;09:33:54.772000;type1;training;train;2 - 1 4 - 2 - 1 - 1 4;3;3;0;0;2;1095.426
1;2018-02-28;09:33:54.772000;type1;training;train;2 - 1 4 - 2 - 1 - 1 4;3;3;1;2;1 4;328.131
1;2018-02-28;09:33:54.772000;type1;training;train;2 - 1 4 - 2 - 1 - 1 4;3;3;2;1 4;2;340.316
1;2018-02-28;09:33:54.772000;type1;training;train;2 - 1 4 - 2 - 1 - 1 4;3;3;3;2;1;328.601
1;2018-02-28;09:33:54.772000;type1;training;train;2 - 1 4 - 2 - 1 - 1 4;3;3;4;1;1 4;270.662
1;2018-02-28;09:33:54.772000;type1;training;train;2 - 1 4 - 2 - 1 - 1 4;4;4;0;0;2;753.277
1;2018-02-28;09:33:54.772000;type1;training;train;2 - 1 4 - 2 - 1 - 1 4;4;4;1;2;1 4;298.382
1;2018-02-28;09:33:54.772000;type1;training;train;2 - 1 4 - 2 - 1 - 1 4;4;4;2;1 4;2;338.041
1;2018-02-28;09:33:54.772000;type1;training;train;2 - 1 4 - 2 - 1 - 1 4;4;4;3;2;1;355.454
1;2018-02-28;09:33:54.772000;type1;training;train;2 - 1 4 - 2 - 1 - 1 4;4;4;4;1;1 4;254.483
1;2018-02-28;09:33:54.772000;type1;training;train;2 - 1 4 - 2 - 1 - 1 4;5;5;0;0;2;749.786
1;2018-02-28;09:33:54.772000;type1;training;train;2 - 1 4 - 2 - 1 - 1 4;5;5;1;2;1 4;291.880
1;2018-02-28;09:33:54.772000;type1;training;train;2 - 1 4 - 2 - 1 - 1 4;5;5;2;1 4;2;335.537
1;2018-02-28;09:33:54.772000;type1;training;train;2 - 1 4 - 2 - 1 - 1 4;5;5;3;2;1;333.780
1;2018-02-28;09:33:54.772000;type1;training;train;2 - 1 4 - 2 - 1 - 1 4;5;5;4;1;1 4;266.189
1;2018-02-28;09:33:54.772000;type1;training;train;2 - 4 - 4 - 2 3 - 1 4;1;1;0;0;2;1753.593
1;2018-02-28;09:33:54.772000;type1;training;train;2 - 4 - 4 - 2 3 - 1 4;1;1;1;2;4;338.243
1;2018-02-28;09:33:54.772000;type1;training;train;2 - 4 - 4 - 2 3 - 1 4;1;1;2;4;4;394.418
1;2018-02-28;09:33:54.772000;type1;training;train;2 - 4 - 4 - 2 3 - 1 4;1;1;3;4;2 3;411.591
1;2018-02-28;09:33:54.772000;type1;training;train;2 - 4 - 4 - 2 3 - 1 4;1;1;4;2 3;1 4;378.320
1;2018-02-28;09:33:54.772000;type1;training;train;2 - 4 - 4 - 2 3 - 1 4;2;2;0;0;2;754.607
1;2018-02-28;09:33:54.772000;type1;training;train;2 - 4 - 4 - 2 3 - 1 4;2;2;1;2;4;404.466
1;2018-02-28;09:33:54.772000;type1;training;train;2 - 4 - 4 - 2 3 - 1 4;2;2;2;4;4;262.392
1;2018-02-28;09:33:54.772000;type1;training;train;2 - 4 - 4 - 2 3 - 1 4;2;2;3;4;2 3;367.524
1;2018-02-28;09:33:54.772000;type1;training;train;2 - 4 - 4 - 2 3 - 1 4;2;2;4;2 3;1 4;305.958
1;2018-02-28;09:33:54.772000;type1;training;train;2 - 4 - 4 - 2 3 - 1 4;3;3;0;0;2;769.642
1;2018-02-28;09:33:54.772000;type1;training;train;2 - 4 - 4 - 2 3 - 1 4;3;3;1;2;4;302.664
1;2018-02-28;09:33:54.772000;type1;training;train;2 - 4 - 4 - 2 3 - 1 4;3;3;2;4;4;259.971
1;2018-02-28;09:33:54.772000;type1;training;train;2 - 4 - 4 - 2 3 - 1 4;3;3;3;4;2 3;280.969
1;2018-02-28;09:33:54.772000;type1;training;train;2 - 4 - 4 - 2 3 - 1 4;3;3;4;2 3;1 4;343.117
1;2018-02-28;09:33:54.772000;type1;training;train;2 - 4 - 4 - 2 3 - 1 4;4;4;0;0;2;790.099
1;2018-02-28;09:33:54.772000;type1;training;train;2 - 4 - 4 - 2 3 - 1 4;4;4;1;2;4;310.969
1;2018-02-28;09:33:54.772000;type1;training;train;2 - 4 - 4 - 2 3 - 1 4;4;4;2;4;4;296.991
1;2018-02-28;09:33:54.772000;type1;training;train;2 - 4 - 4 - 2 3 - 1 4;4;4;3;4;2 3;342.942
1;2018-02-28;09:33:54.772000;type1;training;train;2 - 4 - 4 - 2 3 - 1 4;4;4;4;2 3;1 4;298.766
1;2018-02-28;09:33:54.772000;type1;training;train;2 - 4 - 4 - 2 3 - 1 4;5;5;0;0;2;917.853
1;2018-02-28;09:33:54.772000;type1;training;train;2 - 4 - 4 - 2 3 - 1 4;5;5;1;2;4;279.383
1;2018-02-28;09:33:54.772000;type1;training;train;2 - 4 - 4 - 2 3 - 1 4;5;5;2;4;4;280.494
1;2018-02-28;09:33:54.772000;type1;training;train;2 - 4 - 4 - 2 3 - 1 4;5;5;3;4;2 3;273.430
1;2018-02-28;09:33:54.772000;type1;training;train;2 - 4 - 4 - 2 3 - 1 4;5;5;4;2 3;1 4;273.127
1;2018-02-28;09:33:54.772000;type1;training;train;3 4 - 1 3 - 3 4 - 2 - 2;1;1;0;0;4;1874.660
1;2018-02-28;09:33:54.772000;type1;training;train;3 4 - 1 3 - 3 4 - 2 - 2;1;1;1;4;3;10.653
1;2018-02-28;09:33:54.772000;type1;training;train;3 4 - 1 3 - 3 4 - 2 - 2;1;1;2;3;1 3;1478.512
1;2018-02-28;09:33:54.772000;type1;training;train;3 4 - 1 3 - 3 4 - 2 - 2;1;1;3;1 3;4;408.914
1;2018-02-28;09:33:54.772000;type1;training;train;3 4 - 1 3 - 3 4 - 2 - 2;1;1;4;4;3;94.271
1;2018-02-28;09:33:54.772000;type1;training;train;3 4 - 1 3 - 3 4 - 2 - 2;2;1;0;0;4;2039.100
1;2018-02-28;09:33:54.772000;type1;training;train;3 4 - 1 3 - 3 4 - 2 - 2;2;1;1;4;3;22.992
1;2018-02-28;09:33:54.772000;type1;training;train;3 4 - 1 3 - 3 4 - 2 - 2;2;1;2;3;1;1589.267
1;2018-02-28;09:33:54.772000;type1;training;train;3 4 - 1 3 - 3 4 - 2 - 2;2;1;3;1;3;9.109
1;2018-02-28;09:33:54.772000;type1;training;train;3 4 - 1 3 - 3 4 - 2 - 2;3;1;0;0;3 4;987.601
1;2018-02-28;09:33:54.772000;type1;training;train;3 4 - 1 3 - 3 4 - 2 - 2;3;1;1;3 4;1 3;1003.173
1;2018-02-28;09:33:54.772000;type1;training;train;3 4 - 1 3 - 3 4 - 2 - 2;3;1;2;1 3;3 4;618.656
1;2018-02-28;09:33:54.772000;type1;training;train;3 4 - 1 3 - 3 4 - 2 - 2;3;1;3;3 4;2;427.610
1;2018-02-28;09:33:54.772000;type1;training;train;3 4 - 1 3 - 3 4 - 2 - 2;3;1;4;2;2;413.462
1;2018-02-28;09:33:54.772000;type1;training;train;3 4 - 1 3 - 3 4 - 2 - 2;4;2;0;0;3 4;856.441
1;2018-02-28;09:33:54.772000;type1;training;train;3 4 - 1 3 - 3 4 - 2 - 2;4;2;1;3 4;1 3;633.539
1;2018-02-28;09:33:54.772000;type1;training;train;3 4 - 1 3 - 3 4 - 2 - 2;4;2;2;1 3;3 4;503.837
1;2018-02-28;09:33:54.772000;type1;training;train;3 4 - 1 3 - 3 4 - 2 - 2;4;2;3;3 4;2;398.079
1;2018-02-28;09:33:54.772000;type1;training;train;3 4 - 1 3 - 3 4 - 2 - 2;4;2;4;2;2;292.085
1;2018-02-28;09:33:54.772000;type1;training;train;3 4 - 1 3 - 3 4 - 2 - 2;5;3;0;0;3 4 4;736.085
1;2018-02-28;09:33:54.772000;type1;training;train;3 4 - 1 3 - 3 4 - 2 - 2;5;3;1;3 4 4;1 3;468.775
1;2018-02-28;09:33:54.772000;type1;training;train;3 4 - 1 3 - 3 4 - 2 - 2;5;3;2;1 3;3 4;493.796
1;2018-02-28;09:33:54.772000;type1;training;train;3 4 - 1 3 - 3 4 - 2 - 2;5;3;3;3 4;2;344.024
1;2018-02-28;09:33:54.772000;type1;training;train;3 4 - 1 3 - 3 4 - 2 - 2;5;3;4;2;2;392.699
1;2018-02-28;09:33:54.772000;type1;training;train;3 4 - 1 3 - 3 4 - 2 - 2;6;3;0;0;3 4;701.891
1;2018-02-28;09:33:54.772000;type1;training;train;3 4 - 1 3 - 3 4 - 2 - 2;6;3;1;3 4;1 3;694.118
1;2018-02-28;09:33:54.772000;type1;training;train;3 4 - 1 3 - 3 4 - 2 - 2;6;3;2;1 3;3 4;762.231
1;2018-02-28;09:33:54.772000;type1;training;train;3 4 - 1 3 - 3 4 - 2 - 2;6;3;3;3 4;2;304.474
1;2018-02-28;09:33:54.772000;type1;training;train;3 4 - 1 3 - 3 4 - 2 - 2;6;3;4;2;2;247.422
1;2018-02-28;09:33:54.772000;type1;training;train;3 4 - 1 3 - 3 4 - 2 - 2;7;4;0;0;3 4;863.669
1;2018-02-28;09:33:54.772000;type1;training;train;3 4 - 1 3 - 3 4 - 2 - 2;7;4;1;3 4;3;404.171
1;2018-02-28;09:33:54.772000;type1;training;train;3 4 - 1 3 - 3 4 - 2 - 2;7;4;2;3;3 4;895.658
1;2018-02-28;09:33:54.772000;type1;training;train;3 4 - 1 3 - 3 4 - 2 - 2;7;4;3;3 4;2;412.309
1;2018-02-28;09:33:54.772000;type1;training;train;3 4 - 1 3 - 3 4 - 2 - 2;7;4;4;2;2;188.836
1;2018-02-28;09:33:54.772000;type1;training;train;3 4 - 1 3 - 3 4 - 2 - 2;8;4;0;0;3 4;670.631
1;2018-02-28;09:33:54.772000;type1;training;train;3 4 - 1 3 - 3 4 - 2 - 2;8;4;1;3 4;1 3;454.448
1;2018-02-28;09:33:54.772000;type1;training;train;3 4 - 1 3 - 3 4 - 2 - 2;8;4;2;1 3;3 4;417.949
1;2018-02-28;09:33:54.772000;type1;training;train;3 4 - 1 3 - 3 4 - 2 - 2;8;4;3;3 4;2;340.206
1;2018-02-28;09:33:54.772000;type1;training;train;3 4 - 1 3 - 3 4 - 2 - 2;8;4;4;2;2;310.777
1;2018-02-28;09:33:54.772000;type1;training;train;3 4 - 1 3 - 3 4 - 2 - 2;9;5;0;0;3 4;509.477
1;2018-02-28;09:33:54.772000;type1;training;train;3 4 - 1 3 - 3 4 - 2 - 2;9;5;1;3 4;1 3;542.042
1;2018-02-28;09:33:54.772000;type1;training;train;3 4 - 1 3 - 3 4 - 2 - 2;9;5;2;1 3;3 4;1344.885
1;2018-02-28;09:33:54.772000;type1;training;train;3 4 - 1 3 - 3 4 - 2 - 2;9;5;3;3 4;2;355.694
1;2018-02-28;09:33:54.772000;type1;training;train;3 4 - 1 3 - 3 4 - 2 - 2;9;5;4;2;2;222.687
2;2018-02-28;09:37:52.737000;type1;training;train;1 2 - 2 - 2 - 4 - 2 3;1;1;0;0;1 2;1283.967
2;2018-02-28;09:37:52.737000;type1;training;train;1 2 - 2 - 2 - 4 - 2 3;1;1;1;1 2;2;520.060
2;2018-02-28;09:37:52.737000;type1;training;train;1 2 - 2 - 2 - 4 - 2 3;1;1;2;2;2;542.220
2;2018-02-28;09:37:52.737000;type1;training;train;1 2 - 2 - 2 - 4 - 2 3;1;1;3;2;4;1025.982
2;2018-02-28;09:37:52.737000;type1;training;train;1 2 - 2 - 2 - 4 - 2 3;1;1;4;4;2 3;528.816
2;2018-02-28;09:37:52.737000;type1;training;train;1 2 - 2 - 2 - 4 - 2 3;2;2;0;0;1 2;969.243
2;2018-02-28;09:37:52.737000;type1;training;train;1 2 - 2 - 2 - 4 - 2 3;2;2;1;1 2;2;387.965
2;2018-02-28;09:37:52.737000;type1;training;train;1 2 - 2 - 2 - 4 - 2 3;2;2;2;2;2;307.838
2;2018-02-28;09:37:52.737000;type1;training;train;1 2 - 2 - 2 - 4 - 2 3;2;2;3;2;4;255.880
2;2018-02-28;09:37:52.737000;type1;training;train;1 2 - 2 - 2 - 4 - 2 3;2;2;4;4;2 3;295.721
2;2018-02-28;09:37:52.737000;type1;training;train;1 2 - 2 - 2 - 4 - 2 3;3;3;0;0;1 2;763.428
2;2018-02-28;09:37:52.737000;type1;training;train;1 2 - 2 - 2 - 4 - 2 3;3;3;1;1 2;2;273.480
2;2018-02-28;09:37:52.737000;type1;training;train;1 2 - 2 - 2 - 4 - 2 3;3;3;2;2;2;180.143
2;2018-02-28;09:37:52.737000;type1;training;train;1 2 - 2 - 2 - 4 - 2 3;3;3;3;2;4;211.938
2;2018-02-28;09:37:52.737000;type1;training;train;1 2 - 2 - 2 - 4 - 2 3;3;3;4;4;2 3;236.677
2;2018-02-28;09:37:52.737000;type1;training;train;1 2 - 2 - 2 - 4 - 2 3;4;4;0;0;1 2;624.350
2;2018-02-28;09:37:52.737000;type1;training;train;1 2 - 2 - 2 - 4 - 2 3;4;4;1;1 2;2;238.051
2;2018-02-28;09:37:52.737000;type1;training;train;1 2 - 2 - 2 - 4 - 2 3;4;4;2;2;2;163.800
2;2018-02-28;09:37:52.737000;type1;training;train;1 2 - 2 - 2 - 4 - 2 3;4;4;3;2;4;199.943
2;2018-02-28;09:37:52.737000;type1;training;train;1 2 - 2 - 2 - 4 - 2 3;4;4;4;4;2 3;194.917
2;2018-02-28;09:37:52.737000;type1;training;train;1 2 - 2 - 2 - 4 - 2 3;5;5;0;0;1 2;736.641
2;2018-02-28;09:37:52.737000;type1;training;train;1 2 - 2 - 2 - 4 - 2 3;5;5;1;1 2;2;273.317
2;2018-02-28;09:37:52.737000;type1;training;train;1 2 - 2 - 2 - 4 - 2 3;5;5;2;2;2;152.281
2;2018-02-28;09:37:52.737000;type1;training;train;1 2 - 2 - 2 - 4 - 2 3;5;5;3;2;4;258.006
2;2018-02-28;09:37:52.737000;type1;training;train;1 2 - 2 - 2 - 4 - 2 3;5;5;4;4;2 3;235.613
2;2018-02-28;09:37:52.737000;type1;training;train;2 - 1 4 - 2 - 1 - 1 4;1;1;0;0;2;1313.708
2;2018-02-28;09:37:52.737000;type1;training;train;2 - 1 4 - 2 - 1 - 1 4;1;1;1;2;1 4;415.561
2;2018-02-28;09:37:52.737000;type1;training;train;2 - 1 4 - 2 - 1 - 1 4;1;1;2;1 4;2;381.074
2;2018-02-28;09:37:52.737000;type1;training;train;2 - 1 4 - 2 - 1 - 1 4;1;1;3;2;1;472.898
2;2018-02-28;09:37:52.737000;type1;training;train;2 - 1 4 - 2 - 1 - 1 4;1;1;4;1;1 4;420.552
2;2018-02-28;09:37:52.737000;type1;training;train;2 - 1 4 - 2 - 1 - 1 4;2;2;0;0;2;888.321
2;2018-02-28;09:37:52.737000;type1;training;train;2 - 1 4 - 2 - 1 - 1 4;2;2;1;2;1 4;298.667
2;2018-02-28;09:37:52.737000;type1;training;train;2 - 1 4 - 2 - 1 - 1 4;2;2;2;1 4;2;312.315
2;2018-02-28;09:37:52.737000;type1;training;train;2 - 1 4 - 2 - 1 - 1 4;2;2;3;2;1;291.463
2;2018-02-28;09:37:52.737000;type1;training;train;2 - 1 4 - 2 - 1 - 1 4;2;2;4;1;1 4;276.064
2;2018-02-28;09:37:52.737000;type1;training;train;2 - 1 4 - 2 - 1 - 1 4;3;3;0;0;2;904.797
2;2018-02-28;09:37:52.737000;type1;training;train;2 - 1 4 - 2 - 1 - 1 4;3;3;1;2;1 4;286.106
2;2018-02-28;09:37:52.737000;type1;training;train;2 - 1 4 - 2 - 1 - 1 4;3;3;2;1 4;2;322.107
2;2018-02-28;09:37:52.737000;type1;training;train;2 - 1 4 - 2 - 1 - 1 4;3;3;3;2;1;356.154
2;2018-02-28;09:37:52.737000;type1;training;train;2 - 1 4 - 2 - 1 - 1 4;3;3;4;1;1 4;292.348
2;2018-02-28;09:37:52.737000;type1;training;train;2 - 1 4 - 2 - 1 - 1 4;4;4;0;0;2;769.491
2;2018-02-28;09:37:52.737000;type1;training;train;2 - 1 4 - 2 - 1 - 1 4;4;4;1;2;1 4;237.997
2;2018-02-28;09:37:52.737000;type1;training;train;2 - 1 4 - 2 - 1 - 1 4;4;4;2;1 4;2;260.663
2;2018-02-28;09:37:52.737000;type1;training;train;2 - 1 4 - 2 - 1 - 1 4;4;4;3;2;1;277.865
2;2018-02-28;09:37:52.737000;type1;training;train;2 - 1 4 - 2 - 1 - 1 4;4;4;4;1;1 4;251.478
2;2018-02-28;09:37:52.737000;type1;training;train;2 - 1 4 - 2 - 1 - 1 4;5;5;0;0;2;601.732
2;2018-02-28;09:37:52.737000;type1;training;train;2 - 1 4 - 2 - 1 - 1 4;5;5;1;2;1 4;215.200
2;2018-02-28;09:37:52.737000;type1;training;train;2 - 1 4 - 2 - 1 - 1 4;5;5;2;1 4;2;253.062
2;2018-02-28;09:37:52.737000;type1;training;train;2 - 1 4 - 2 - 1 - 1 4;5;5;3;2;1 2;319.116
2;2018-02-28;09:37:52.737000;type1;training;train;2 - 1 4 - 2 - 1 - 1 4;5;5;4;1 2;4;389.348
2;2018-02-28;09:37:52.737000;type1;training;train;2 - 1 4 - 2 - 1 - 1 4;6;5;0;0;2;578.984
2;2018-02-28;09:37:52.737000;type1;training;train;2 - 1 4 - 2 - 1 - 1 4;6;5;1;2;1 4;241.619
2;2018-02-28;09:37:52.737000;type1;training;train;2 - 1 4 - 2 - 1 - 1 4;6;5;2;1 4;2;268.674
2;2018-02-28;09:37:52.737000;type1;training;train;2 - 1 4 - 2 - 1 - 1 4;6;5;3;2;2;189.158
2;2018-02-28;09:37:52.737000;type1;training;train;2 - 1 4 - 2 - 1 - 1 4;6;5;4;2;1;1048.438
2;2018-02-28;09:37:52.737000;type1;training;train;2 - 1 4 - 2 - 1 - 1 4;7;5;0;0;2;569.296
2;2018-02-28;09:37:52.737000;type1;training;train;2 - 1 4 - 2 - 1 - 1 4;7;5;1;2;1 4;240.584
2;2018-02-28;09:37:52.737000;type1;training;train;2 - 1 4 - 2 - 1 - 1 4;7;5;2;1 4;2;261.900
2;2018-02-28;09:37:52.737000;type1;training;train;2 - 1 4 - 2 - 1 - 1 4;7;5;3;2;1;255.817
2;2018-02-28;09:37:52.737000;type1;training;train;2 - 1 4 - 2 - 1 - 1 4;7;5;4;1;1 4;235.004
2;2018-02-28;09:37:52.737000;type1;training;train;2 - 4 - 4 - 2 3 - 1 4;1;1;0;0;2;1179.841
2;2018-02-28;09:37:52.737000;type1;training;train;2 - 4 - 4 - 2 3 - 1 4;1;1;1;2;4;278.258
2;2018-02-28;09:37:52.737000;type1;training;train;2 - 4 - 4 - 2 3 - 1 4;1;1;2;4;4;278.403
2;2018-02-28;09:37:52.737000;type1;training;train;2 - 4 - 4 - 2 3 - 1 4;1;1;3;4;2 3;231.533
2;2018-02-28;09:37:52.737000;type1;training;train;2 - 4 - 4 - 2 3 - 1 4;1;1;4;2 3;1 4;379.041
2;2018-02-28;09:37:52.737000;type1;training;train;2 - 4 - 4 - 2 3 - 1 4;2;2;0;0;2;862.408
2;2018-02-28;09:37:52.737000;type1;training;train;2 - 4 - 4 - 2 3 - 1 4;2;2;1;2;4;220.075
2;2018-02-28;09:37:52.737000;type1;training;train;2 - 4 - 4 - 2 3 - 1 4;2;2;2;4;4;161.468
2;2018-02-28;09:37:52.737000;type1;training;train;2 - 4 - 4 - 2 3 - 1 4;2;2;3;4;2 3;215.723
2;2018-02-28;09:37:52.737000;type1;training;train;2 - 4 - 4 - 2 3 - 1 4;2;2;4;2 3;1 4;241.543
2;2018-02-28;09:37:52.737000;type1;training;train;2 - 4 - 4 - 2 3 - 1 4;3;3;0;0;2;822.617
2;2018-02-28;09:37:52.737000;type1;training;train;2 - 4 - 4 - 2 3 - 1 4;3;3;1;2;4;227.669
2;2018-02-28;09:37:52.737000;type1;training;train;2 - 4 - 4 - 2 3 - 1 4;3;3;2;4;4;167.027
2;2018-02-28;09:37:52.737000;type1;training;train;2 - 4 - 4 - 2 3 - 1 4;3;3;3;4;2 3;203.733
2;2018-02-28;09:37:52.737000;type1;training;train;2 - 4 - 4 - 2 3 - 1 4;3;3;4;2 3;1 4;224.845
2;2018-02-28;09:37:52.737000;type1;training;train;2 - 4 - 4 - 2 3 - 1 4;4;4;0;0;2;639.470
2;2018-02-28;09:37:52.737000;type1;training;train;2 - 4 - 4 - 2 3 - 1 4;4;4;1;2;4;219.785
2;2018-02-28;09:37:52.737000;type1;training;train;2 - 4 - 4 - 2 3 - 1 4;4;4;2;4;4;138.528
2;2018-02-28;09:37:52.737000;type1;training;train;2 - 4 - 4 - 2 3 - 1 4;4;4;3;4;2 3;234.102
2;2018-02-28;09:37:52.737000;type1;training;train;2 - 4 - 4 - 2 3 - 1 4;4;4;4;2 3;1 4;254.345
2;2018-02-28;09:37:52.737000;type1;training;train;2 - 4 - 4 - 2 3 - 1 4;5;5;0;0;2;496.254
2;2018-02-28;09:37:52.737000;type1;training;train;2 - 4 - 4 - 2 3 - 1 4;5;5;1;2;4 4;255.155
2;2018-02-28;09:37:52.737000;type1;training;train;2 - 4 - 4 - 2 3 - 1 4;5;5;2;4 4;3;263.062
2;2018-02-28;09:37:52.737000;type1;training;train;2 - 4 - 4 - 2 3 - 1 4;5;5;3;3;2;227.958
2;2018-02-28;09:37:52.737000;type1;training;train;2 - 4 - 4 - 2 3 - 1 4;5;5;4;2;1 4;294.787
2;2018-02-28;09:37:52.737000;type1;training;train;2 - 4 - 4 - 2 3 - 1 4;6;5;0;0;2;835.417
2;2018-02-28;09:37:52.737000;type1;training;train;2 - 4 - 4 - 2 3 - 1 4;6;5;1;2;4;207.322
2;2018-02-28;09:37:52.737000;type1;training;train;2 - 4 - 4 - 2 3 - 1 4;6;5;2;4;4;151.635
2;2018-02-28;09:37:52.737000;type1;training;train;2 - 4 - 4 - 2 3 - 1 4;6;5;3;4;2 3;250.816
2;2018-02-28;09:37:52.737000;type1;training;train;2 - 4 - 4 - 2 3 - 1 4;6;5;4;2 3;1 4;268.209
2;2018-02-28;09:37:52.737000;type1;training;train;3 4 - 1 3 - 3 4 - 2 - 2;1;1;0;0;3 4;1512.513
2;2018-02-28;09:37:52.737000;type1;training;train;3 4 - 1 3 - 3 4 - 2 - 2;1;1;1;3 4;1 3;1199.737
2;2018-02-28;09:37:52.737000;type1;training;train;3 4 - 1 3 - 3 4 - 2 - 2;1;1;2;1 3;3 4;739.948
2;2018-02-28;09:37:52.737000;type1;training;train;3 4 - 1 3 - 3 4 - 2 - 2;1;1;3;3 4;2;347.757
2;2018-02-28;09:37:52.737000;type1;training;train;3 4 - 1 3 - 3 4 - 2 - 2;1;1;4;2;2;178.912
2;2018-02-28;09:37:52.737000;type1;training;train;3 4 - 1 3 - 3 4 - 2 - 2;2;2;0;0;3 4;1229.637
2;2018-02-28;09:37:52.737000;type1;training;train;3 4 - 1 3 - 3 4 - 2 - 2;2;2;1;3 4;1 3;531.378
2;2018-02-28;09:37:52.737000;type1;training;train;3 4 - 1 3 - 3 4 - 2 - 2;2;2;2;1 3;2 3 4;401.298
2;2018-02-28;09:37:52.737000;type1;training;train;3 4 - 1 3 - 3 4 - 2 - 2;2;2;3;2 3 4;2;619.961
2;2018-02-28;09:37:52.737000;type1;training;train;3 4 - 1 3 - 3 4 - 2 - 2;2;2;4;2;2;195.969
2;2018-02-28;09:37:52.737000;type1;training;train;3 4 - 1 3 - 3 4 - 2 - 2;3;2;0;0;3 4;950.284
2;2018-02-28;09:37:52.737000;type1;training;train;3 4 - 1 3 - 3 4 - 2 - 2;3;2;1;3 4;1 3;389.632
2;2018-02-28;09:37:52.737000;type1;training;train;3 4 - 1 3 - 3 4 - 2 - 2;3;2;2;1 3;3 4;409.195
2;2018-02-28;09:37:52.737000;type1;training;train;3 4 - 1 3 - 3 4 - 2 - 2;3;2;3;3 4;2;314.782
2;2018-02-28;09:37:52.737000;type1;training;train;3 4 - 1 3 - 3 4 - 2 - 2;3;2;4;2;2;209.787
2;2018-02-28;09:37:52.737000;type1;training;train;3 4 - 1 3 - 3 4 - 2 - 2;4;3;0;0;3 4;712.714
2;2018-02-28;09:37:52.737000;type1;training;train;3 4 - 1 3 - 3 4 - 2 - 2;4;3;1;3 4;1 3;316.331
2;2018-02-28;09:37:52.737000;type1;training;train;3 4 - 1 3 - 3 4 - 2 - 2;4;3;2;1 3;3 4;333.733
2;2018-02-28;09:37:52.737000;type1;training;train;3 4 - 1 3 - 3 4 - 2 - 2;4;3;3;3 4;2;286.979
2;2018-02-28;09:37:52.737000;type1;training;train;3 4 - 1 3 - 3 4 - 2 - 2;4;3;4;2;2;200.335
2;2018-02-28;09:37:52.737000;type1;training;train;3 4 - 1 3 - 3 4 - 2 - 2;5;4;0;0;3 4;609.056
2;2018-02-28;09:37:52.737000;type1;training;train;3 4 - 1 3 - 3 4 - 2 - 2;5;4;1;3 4;1 3;809.998
2;2018-02-28;09:37:52.737000;type1;training;train;3 4 - 1 3 - 3 4 - 2 - 2;5;4;2;1 3;3 4;393.793
2;2018-02-28;09:37:52.737000;type1;training;train;3 4 - 1 3 - 3 4 - 2 - 2;5;4;3;3 4;2;263.414
2;2018-02-28;09:37:52.737000;type1;training;train;3 4 - 1 3 - 3 4 - 2 - 2;5;4;4;2;2;190.327
2;2018-02-28;09:37:52.737000;type1;training;train;3 4 - 1 3 - 3 4 - 2 - 2;6;5;0;0;3 4;556.220
2;2018-02-28;09:37:52.737000;type1;training;train;3 4 - 1 3 - 3 4 - 2 - 2;6;5;1;3 4;1 3;287.012
2;2018-02-28;09:37:52.737000;type1;training;train;3 4 - 1 3 - 3 4 - 2 - 2;6;5;2;1 3;2;350.835
2;2018-02-28;09:37:52.737000;type1;training;train;3 4 - 1 3 - 3 4 - 2 - 2;6;5;3;2;3 4;373.148
2;2018-02-28;09:37:52.737000;type1;training;train;3 4 - 1 3 - 3 4 - 2 - 2;6;5;4;3 4;2 2;375.295
2;2018-02-28;09:37:52.737000;type1;training;train;3 4 - 1 3 - 3 4 - 2 - 2;7;5;0;0;3 4;721.353
2;2018-02-28;09:37:52.737000;type1;training;train;3 4 - 1 3 - 3 4 - 2 - 2;7;5;1;3 4;1 3;266.156
2;2018-02-28;09:37:52.737000;type1;training;train;3 4 - 1 3 - 3 4 - 2 - 2;7;5;2;1 3;3 4;273.998
2;2018-02-28;09:37:52.737000;type1;training;train;3 4 - 1 3 - 3 4 - 2 - 2;7;5;3;3 4;2;258.366
2;2018-02-28;09:37:52.737000;type1;training;train;3 4 - 1 3 - 3 4 - 2 - 2;7;5;4;2;2;177.282
3;2018-02-28;21:23:03.784000;type1;training;train;1 2 - 2 - 2 - 4 - 2 3;1;1;0;0;1;1034.553
3;2018-02-28;21:23:03.784000;type1;training;train;1 2 - 2 - 2 - 4 - 2 3;1;1;1;1;2;30.268
3;2018-02-28;21:23:03.784000;type1;training;train;1 2 - 2 - 2 - 4 - 2 3;1;1;2;2;2;526.042
3;2018-02-28;21:23:03.784000;type1;training;train;1 2 - 2 - 2 - 4 - 2 3;1;1;3;2;2;632.196
3;2018-02-28;21:23:03.784000;type1;training;train;1 2 - 2 - 2 - 4 - 2 3;1;1;4;2;4;1156.740
3;2018-02-28;21:23:03.784000;type1;training;train;1 2 - 2 - 2 - 4 - 2 3;2;1;0;0;1 2;926.756
3;2018-02-28;21:23:03.784000;type1;training;train;1 2 - 2 - 2 - 4 - 2 3;2;1;1;1 2;2;384.045
3;2018-02-28;21:23:03.784000;type1;training;train;1 2 - 2 - 2 - 4 - 2 3;2;1;2;2;2;459.504
3;2018-02-28;21:23:03.784000;type1;training;train;1 2 - 2 - 2 - 4 - 2 3;2;1;3;2;4;416.835
3;2018-02-28;21:23:03.784000;type1;training;train;1 2 - 2 - 2 - 4 - 2 3;2;1;4;4;2 3;595.881
3;2018-02-28;21:23:03.784000;type1;training;train;1 2 - 2 - 2 - 4 - 2 3;3;2;0;0;1 2;767.291
3;2018-02-28;21:23:03.784000;type1;training;train;1 2 - 2 - 2 - 4 - 2 3;3;2;1;1 2;2;375.483
3;2018-02-28;21:23:03.784000;type1;training;train;1 2 - 2 - 2 - 4 - 2 3;3;2;2;2;2;264.960
3;2018-02-28;21:23:03.784000;type1;training;train;1 2 - 2 - 2 - 4 - 2 3;3;2;3;2;4;276.010
3;2018-02-28;21:23:03.784000;type1;training;train;1 2 - 2 - 2 - 4 - 2 3;3;2;4;4;2 3;266.090
3;2018-02-28;21:23:03.784000;type1;training;train;1 2 - 2 - 2 - 4 - 2 3;4;3;0;0;1 2;581.570
3;2018-02-28;21:23:03.784000;type1;training;train;1 2 - 2 - 2 - 4 - 2 3;4;3;1;1 2;2;267.567
3;2018-02-28;21:23:03.784000;type1;training;train;1 2 - 2 - 2 - 4 - 2 3;4;3;2;2;2;177.460
3;2018-02-28;21:23:03.784000;type1;training;train;1 2 - 2 - 2 - 4 - 2 3;4;3;3;2;4;273.627
3;2018-02-28;21:23:03.784000;type1;training;train;1 2 - 2 - 2 - 4 - 2 3;4;3;4;4;2 3;242.543
3;2018-02-28;21:23:03.784000;type1;training;train;1 2 - 2 - 2 - 4 - 2 3;5;4;0;0;1 2;814.615
3;2018-02-28;21:23:03.784000;type1;training;train;1 2 - 2 - 2 - 4 - 2 3;5;4;1;1 2;2;295.374
3;2018-02-28;21:23:03.784000;type1;training;train;1 2 - 2 - 2 - 4 - 2 3;5;4;2;2;2;167.022
3;2018-02-28;21:23:03.784000;type1;training;train;1 2 - 2 - 2 - 4 - 2 3;5;4;3;2;4;428.446
3;2018-02-28;21:23:03.784000;type1;training;train;1 2 - 2 - 2 - 4 - 2 3;5;4;4;4;2 3;285.659
3;2018-02-28;21:23:03.784000;type1;training;train;1 2 - 2 - 2 - 4 - 2 3;6;5;0;0;1 2;858.955
3;2018-02-28;21:23:03.784000;type1;training;train;1 2 - 2 - 2 - 4 - 2 3;6;5;1;1 2;2;256.123
3;2018-02-28;21:23:03.784000;type1;training;train;1 2 - 2 - 2 - 4 - 2 3;6;5;2;2;2;161.634
3;2018-02-28;21:23:03.784000;type1;training;train;1 2 - 2 - 2 - 4 - 2 3;6;5;3;2;4;220.286
3;2018-02-28;21:23:03.784000;type1;training;train;1 2 - 2 - 2 - 4 - 2 3;6;5;4;4;2 3;228.033
3;2018-02-28;21:23:03.784000;type1;training;train;2 - 1 4 - 2 - 1 - 1 4;1;1;0;0;2;1877.227
3;2018-02-28;21:23:03.784000;type1;training;train;2 - 1 4 - 2 - 1 - 1 4;1;1;1;2;1 4;474.111
3;2018-02-28;21:23:03.784000;type1;training;train;2 - 1 4 - 2 - 1 - 1 4;1;1;2;1 4;2;527.775
3;2018-02-28;21:23:03.784000;type1;training;train;2 - 1 4 - 2 - 1 - 1 4;1;1;3;2;1;568.421
3;2018-02-28;21:23:03.784000;type1;training;train;2 - 1 4 - 2 - 1 - 1 4;1;1;4;1;2;378.736
3;2018-02-28;21:23:03.784000;type1;training;train;2 - 1 4 - 2 - 1 - 1 4;2;1;0;0;2;941.641
3;2018-02-28;21:23:03.784000;type1;training;train;2 - 1 4 - 2 - 1 - 1 4;2;1;1;2;1 4;380.503
3;2018-02-28;21:23:03.784000;type1;training;train;2 - 1 4 - 2 - 1 - 1 4;2;1;2;1 4;2;396.845
3;2018-02-28;21:23:03.784000;type1;training;train;2 - 1 4 - 2 - 1 - 1 4;2;1;3;2;1;371.688
3;2018-02-28;21:23:03.784000;type1;training;train;2 - 1 4 - 2 - 1 - 1 4;2;1;4;1;1 4;315.206
3;2018-02-28;21:23:03.784000;type1;training;train;2 - 1 4 - 2 - 1 - 1 4;3;2;0;0;2;551.746
3;2018-02-28;21:23:03.784000;type1;training;train;2 - 1 4 - 2 - 1 - 1 4;3;2;1;2;1 4;260.674
3;2018-02-28;21:23:03.784000;type1;training;train;2 - 1 4 - 2 - 1 - 1 4;3;2;2;1 4;2;432.740
3;2018-02-28;21:23:03.784000;type1;training;train;2 - 1 4 - 2 - 1 - 1 4;3;2;3;2;1;298.439
3;2018-02-28;21:23:03.784000;type1;training;train;2 - 1 4 - 2 - 1 - 1 4;3;2;4;1;1 4;265.500
3;2018-02-28;21:23:03.784000;type1;training;train;2 - 1 4 - 2 - 1 - 1 4;4;3;0;0;2;885.180
3;2018-02-28;21:23:03.784000;type1;training;train;2 - 1 4 - 2 - 1 - 1 4;4;3;1;2;1 4;226.476
3;2018-02-28;21:23:03.784000;type1;training;train;2 - 1 4 - 2 - 1 - 1 4;4;3;2;1 4;2;259.469
3;2018-02-28;21:23:03.784000;type1;training;train;2 - 1 4 - 2 - 1 - 1 4;4;3;3;2;1;298.816
3;2018-02-28;21:23:03.784000;type1;training;train;2 - 1 4 - 2 - 1 - 1 4;4;3;4;1;1 4;225.448
3;2018-02-28;21:23:03.784000;type1;training;train;2 - 1 4 - 2 - 1 - 1 4;5;4;0;0;2;1072.782
3;2018-02-28;21:23:03.784000;type1;training;train;2 - 1 4 - 2 - 1 - 1 4;5;4;1;2;1 4;223.547
3;2018-02-28;21:23:03.784000;type1;training;train;2 - 1 4 - 2 - 1 - 1 4;5;4;2;1 4;2 2;327.662
3;2018-02-28;21:23:03.784000;type1;training;train;2 - 1 4 - 2 - 1 - 1 4;5;4;3;2 2;1;324.888
3;2018-02-28;21:23:03.784000;type1;training;train;2 - 1 4 - 2 - 1 - 1 4;5;4;4;1;1 4;215.386
3;2018-02-28;21:23:03.784000;type1;training;train;2 - 1 4 - 2 - 1 - 1 4;6;4;0;0;2;606.667
3;2018-02-28;21:23:03.784000;type1;training;train;2 - 1 4 - 2 - 1 - 1 4;6;4;1;2;1 4;229.382
3;2018-02-28;21:23:03.784000;type1;training;train;2 - 1 4 - 2 - 1 - 1 4;6;4;2;1 4;2;237.201
3;2018-02-28;21:23:03.784000;type1;training;train;2 - 1 4 - 2 - 1 - 1 4;6;4;3;2;1;228.041
3;2018-02-28;21:23:03.784000;type1;training;train;2 - 1 4 - 2 - 1 - 1 4;6;4;4;1;1 4;241.021
3;2018-02-28;21:23:03.784000;type1;training;train;2 - 1 4 - 2 - 1 - 1 4;7;5;0;0;2;534.677
3;2018-02-28;21:23:03.784000;type1;training;train;2 - 1 4 - 2 - 1 - 1 4;7;5;1;2;1 4;230.404
3;2018-02-28;21:23:03.784000;type1;training;train;2 - 1 4 - 2 - 1 - 1 4;7;5;2;1 4;2;272.457
3;2018-02-28;21:23:03.784000;type1;training;train;2 - 1 4 - 2 - 1 - 1 4;7;5;3;2;1;255.858
3;2018-02-28;21:23:03.784000;type1;training;train;2 - 1 4 - 2 - 1 - 1 4;7;5;4;1;1 4;223.250
3;2018-02-28;21:23:03.784000;type1;training;train;2 - 4 - 4 - 2 3 - 1 4;1;1;0;0;2;1681.437
3;2018-02-28;21:23:03.784000;type1;training;train;2 - 4 - 4 - 2 3 - 1 4;1;1;1;2;4;274.523
3;2018-02-28;21:23:03.784000;type1;training;train;2 - 4 - 4 - 2 3 - 1 4;1;1;2;4;4;258.998
3;2018-02-28;21:23:03.784000;type1;training;train;2 - 4 - 4 - 2 3 - 1 4;1;1;3;4;2 3;304.419
3;2018-02-28;21:23:03.784000;type1;training;train;2 - 4 - 4 - 2 3 - 1 4;1;1;4;2 3;1 4;289.278
3;2018-02-28;21:23:03.784000;type1;training;train;2 - 4 - 4 - 2 3 - 1 4;2;2;0;0;2;628.204
3;2018-02-28;21:23:03.784000;type1;training;train;2 - 4 - 4 - 2 3 - 1 4;2;2;1;2;4;216.124
3;2018-02-28;21:23:03.784000;type1;training;train;2 - 4 - 4 - 2 3 - 1 4;2;2;2;4;4;165.115
3;2018-02-28;21:23:03.784000;type1;training;train;2 - 4 - 4 - 2 3 - 1 4;2;2;3;4;2 3;257.410
3;2018-02-28;21:23:03.784000;type1;training;train;2 - 4 - 4 - 2 3 - 1 4;2;2;4;2 3;1 4;234.425
3;2018-02-28;21:23:03.784000;type1;training;train;2 - 4 - 4 - 2 3 - 1 4;3;3;0;0;2;641.993
3;2018-02-28;21:23:03.784000;type1;training;train;2 - 4 - 4 - 2 3 - 1 4;3;3;1;2;4;197.042
3;2018-02-28;21:23:03.784000;type1;training;train;2 - 4 - 4 - 2 3 - 1 4;3;3;2;4;4;152.064
3;2018-02-28;21:23:03.784000;type1;training;train;2 - 4 - 4 - 2 3 - 1 4;3;3;3;4;2 2 3;379.913
3;2018-02-28;21:23:03.784000;type1;training;train;2 - 4 - 4 - 2 3 - 1 4;3;3;4;2 2 3;1 4 4;301.759
3;2018-02-28;21:23:03.784000;type1;training;train;2 - 4 - 4 - 2 3 - 1 4;4;3;0;0;2;550.201
3;2018-02-28;21:23:03.784000;type1;training;train;2 - 4 - 4 - 2 3 - 1 4;4;3;1;2;4;233.967
3;2018-02-28;21:23:03.784000;type1;training;train;2 - 4 - 4 - 2 3 - 1 4;4;3;2;4;4;176.366
3;2018-02-28;21:23:03.784000;type1;training;train;2 - 4 - 4 - 2 3 - 1 4;4;3;3;4;2 3;195.317
3;2018-02-28;21:23:03.784000;type1;training;train;2 - 4 - 4 - 2 3 - 1 4;4;3;4;2 3;1 2 4;273.113
3;2018-02-28;21:23:03.784000;type1;training;train;2 - 4 - 4 - 2 3 - 1 4;5;3;0;0;2;582.570
3;2018-02-28;21:23:03.784000;type1;training;train;2 - 4 - 4 - 2 3 - 1 4;5;3;1;2;4;195.671
3;2018-02-28;21:23:03.784000;type1;training;train;2 - 4 - 4 - 2 3 - 1 4;5;3;2;4;4;151.442
3;2018-02-28;21:23:03.784000;type1;training;train;2 - 4 - 4 - 2 3 - 1 4;5;3;3;4;2 3;286.598
3;2018-02-28;21:23:03.784000;type1;training;train;2 - 4 - 4 - 2 3 - 1 4;5;3;4;2 3;1 4;248.081
3;2018-02-28;21:23:03.784000;type1;training;train;2 - 4 - 4 - 2 3 - 1 4;6;4;0;0;2;552.119
3;2018-02-28;21:23:03.784000;type1;training;train;2 - 4 - 4 - 2 3 - 1 4;6;4;1;2;4;200.289
3;2018-02-28;21:23:03.784000;type1;training;train;2 - 4 - 4 - 2 3 - 1 4;6;4;2;4;4 4;228.755
3;2018-02-28;21:23:03.784000;type1;training;train;2 - 4 - 4 - 2 3 - 1 4;6;4;3;4 4;2 3;307.360
3;2018-02-28;21:23:03.784000;type1;training;train;2 - 4 - 4 - 2 3 - 1 4;6;4;4;2 3;1 4;201.888
3;2018-02-28;21:23:03.784000;type1;training;train;2 - 4 - 4 - 2 3 - 1 4;7;4;0;0;2;531.556
3;2018-02-28;21:23:03.784000;type1;training;train;2 - 4 - 4 - 2 3 - 1 4;7;4;1;2;4;200.636
3;2018-02-28;21:23:03.784000;type1;training;train;2 - 4 - 4 - 2 3 - 1 4;7;4;2;4;4;140.815
3;2018-02-28;21:23:03.784000;type1;training;train;2 - 4 - 4 - 2 3 - 1 4;7;4;3;4;2 3;293.899
3;2018-02-28;21:23:03.784000;type1;training;train;2 - 4 - 4 - 2 3 - 1 4;7;4;4;2 3;1 4;211.880
3;2018-02-28;21:23:03.784000;type1;training;train;2 - 4 - 4 - 2 3 - 1 4;8;5;0;0;2;818.549
3;2018-02-28;21:23:03.784000;type1;training;train;2 - 4 - 4 - 2 3 - 1 4;8;5;1;2;4;187.382
3;2018-02-28;21:23:03.784000;type1;training;train;2 - 4 - 4 - 2 3 - 1 4;8;5;2;4;4;156.916
3;2018-02-28;21:23:03.784000;type1;training;train;2 - 4 - 4 - 2 3 - 1 4;8;5;3;4;2 3;184.809
3;2018-02-28;21:23:03.784000;type1;training;train;2 - 4 - 4 - 2 3 - 1 4;8;5;4;2 3;1 4;238.133
3;2018-02-28;21:23:03.784000;type1;training;train;3 4 - 1 3 - 3 4 - 2 - 2;1;1;0;0;4;2345.450
3;2018-02-28;21:23:03.784000;type1;training;train;3 4 - 1 3 - 3 4 - 2 - 2;1;1;1;4;3;9.761
3;2018-02-28;21:23:03.784000;type1;training;train;3 4 - 1 3 - 3 4 - 2 - 2;1;1;2;3;3;1478.439
3;2018-02-28;21:23:03.784000;type1;training;train;3 4 - 1 3 - 3 4 - 2 - 2;1;1;3;3;1;8.831
3;2018-02-28;21:23:03.784000;type1;training;train;3 4 - 1 3 - 3 4 - 2 - 2;2;1;0;0;3 4;1689.803
3;2018-02-28;21:23:03.784000;type1;training;train;3 4 - 1 3 - 3 4 - 2 - 2;2;1;1;3 4;1 3;822.549
3;2018-02-28;21:23:03.784000;type1;training;train;3 4 - 1 3 - 3 4 - 2 - 2;2;1;2;1 3;3 4;399.485
3;2018-02-28;21:23:03.784000;type1;training;train;3 4 - 1 3 - 3 4 - 2 - 2;2;1;3;3 4;2;335.044
3;2018-02-28;21:23:03.784000;type1;training;train;3 4 - 1 3 - 3 4 - 2 - 2;2;1;4;2;2;466.193
3;2018-02-28;21:23:03.784000;type1;training;train;3 4 - 1 3 - 3 4 - 2 - 2;3;2;0;0;3 4;1065.143
3;2018-02-28;21:23:03.784000;type1;training;train;3 4 - 1 3 - 3 4 - 2 - 2;3;2;1;3 4;1 3;295.325
3;2018-02-28;21:23:03.784000;type1;training;train;3 4 - 1 3 - 3 4 - 2 - 2;3;2;2;1 3;3 4;391.126
3;2018-02-28;21:23:03.784000;type1;training;train;3 4 - 1 3 - 3 4 - 2 - 2;3;2;3;3 4;2 3;309.522
3;2018-02-28;21:23:03.784000;type1;training;train;3 4 - 1 3 - 3 4 - 2 - 2;3;2;4;2 3;2;254.991
3;2018-02-28;21:23:03.784000;type1;training;train;3 4 - 1 3 - 3 4 - 2 - 2;4;2;0;0;3 4;1036.163
3;2018-02-28;21:23:03.784000;type1;training;train;3 4 - 1 3 - 3 4 - 2 - 2;4;2;1;3 4;1 3;319.298
3;2018-02-28;21:23:03.784000;type1;training;train;3 4 - 1 3 - 3 4 - 2 - 2;4;2;2;1 3;3 4;345.998
3;2018-02-28;21:23:03.784000;type1;training;train;3 4 - 1 3 - 3 4 - 2 - 2;4;2;3;3 4;2;309.610
3;2018-02-28;21:23:03.784000;type1;training;train;3 4 - 1 3 - 3 4 - 2 - 2;4;2;4;2;2;197.920
3;2018-02-28;21:23:03.784000;type1;training;train;3 4 - 1 3 - 3 4 - 2 - 2;5;3;0;0;3 4;817.311
3;2018-02-28;21:23:03.784000;type1;training;train;3 4 - 1 3 - 3 4 - 2 - 2;5;3;1;3 4;1 3;408.507
3;2018-02-28;21:23:03.784000;type1;training;train;3 4 - 1 3 - 3 4 - 2 - 2;5;3;2;1 3;3 4;349.405
3;2018-02-28;21:23:03.784000;type1;training;train;3 4 - 1 3 - 3 4 - 2 - 2;5;3;3;3 4;2;329.547
3;2018-02-28;21:23:03.784000;type1;training;train;3 4 - 1 3 - 3 4 - 2 - 2;5;3;4;2;2;189.592
3;2018-02-28;21:23:03.784000;type1;training;train;3 4 - 1 3 - 3 4 - 2 - 2;6;4;0;0;3 4;387.845
3;2018-02-28;21:23:03.784000;type1;training;train;3 4 - 1 3 - 3 4 - 2 - 2;6;4;1;3 4;1 3;354.684
3;2018-02-28;21:23:03.784000;type1;training;train;3 4 - 1 3 - 3 4 - 2 - 2;6;4;2;1 3;3 4;369.249
3;2018-02-28;21:23:03.784000;type1;training;train;3 4 - 1 3 - 3 4 - 2 - 2;6;4;3;3 4;2;233.298
3;2018-02-28;21:23:03.784000;type1;training;train;3 4 - 1 3 - 3 4 - 2 - 2;6;4;4;2;2;184.077
3;2018-02-28;21:23:03.784000;type1;training;train;3 4 - 1 3 - 3 4 - 2 - 2;7;5;0;0;3 4;407.198
3;2018-02-28;21:23:03.784000;type1;training;train;3 4 - 1 3 - 3 4 - 2 - 2;7;5;1;3 4;1 3;344.926
3;2018-02-28;21:23:03.784000;type1;training;train;3 4 - 1 3 - 3 4 - 2 - 2;7;5;2;1 3;3 4;443.293
3;2018-02-28;21:23:03.784000;type1;training;train;3 4 - 1 3 - 3 4 - 2 - 2;7;5;3;3 4;2;268.104
3;2018-02-28;21:23:03.784000;type1;training;train;3 4 - 1 3 - 3 4 - 2 - 2;7;5;4;2;2;179.329
4;2018-03-01;10:54:51.369000;type1;training;train;1 2 - 2 - 2 - 4 - 2 3;1;1;0;0;1 2;1571.898
4;2018-03-01;10:54:51.369000;type1;training;train;1 2 - 2 - 2 - 4 - 2 3;1;1;1;1 2;2;380.941
4;2018-03-01;10:54:51.369000;type1;training;train;1 2 - 2 - 2 - 4 - 2 3;1;1;2;2;2;395.387
4;2018-03-01;10:54:51.369000;type1;training;train;1 2 - 2 - 2 - 4 - 2 3;1;1;3;2;4;799.826
4;2018-03-01;10:54:51.369000;type1;training;train;1 2 - 2 - 2 - 4 - 2 3;1;1;4;4;2 3;598.984
4;2018-03-01;10:54:51.369000;type1;training;train;1 2 - 2 - 2 - 4 - 2 3;2;2;0;0;1 2;998.153
4;2018-03-01;10:54:51.369000;type1;training;train;1 2 - 2 - 2 - 4 - 2 3;2;2;1;1 2;2;360.797
4;2018-03-01;10:54:51.369000;type1;training;train;1 2 - 2 - 2 - 4 - 2 3;2;2;2;2;2;307.271
4;2018-03-01;10:54:51.369000;type1;training;train;1 2 - 2 - 2 - 4 - 2 3;2;2;3;2;4;283.497
4;2018-03-01;10:54:51.369000;type1;training;train;1 2 - 2 - 2 - 4 - 2 3;2;2;4;4;2 3;240.313
4;2018-03-01;10:54:51.369000;type1;training;train;1 2 - 2 - 2 - 4 - 2 3;3;3;0;0;1 2;693.867
4;2018-03-01;10:54:51.369000;type1;training;train;1 2 - 2 - 2 - 4 - 2 3;3;3;1;1 2;2;244.332
4;2018-03-01;10:54:51.369000;type1;training;train;1 2 - 2 - 2 - 4 - 2 3;3;3;2;2;2;167.706
4;2018-03-01;10:54:51.369000;type1;training;train;1 2 - 2 - 2 - 4 - 2 3;3;3;3;2;4;239.284
4;2018-03-01;10:54:51.369000;type1;training;train;1 2 - 2 - 2 - 4 - 2 3;3;3;4;4;2 3;194.151
4;2018-03-01;10:54:51.369000;type1;training;train;1 2 - 2 - 2 - 4 - 2 3;4;4;0;0;1 2;534.499
4;2018-03-01;10:54:51.369000;type1;training;train;1 2 - 2 - 2 - 4 - 2 3;4;4;1;1 2;4;301.290
4;2018-03-01;10:54:51.369000;type1;training;train;1 2 - 2 - 2 - 4 - 2 3;4;4;2;4;4;197.867
4;2018-03-01;10:54:51.369000;type1;training;train;1 2 - 2 - 2 - 4 - 2 3;4;4;3;4;2;560.452
4;2018-03-01;10:54:51.369000;type1;training;train;1 2 - 2 - 2 - 4 - 2 3;4;4;4;2;2;163.680
4;2018-03-01;10:54:51.369000;type1;training;train;1 2 - 2 - 2 - 4 - 2 3;5;4;0;0;1 2;638.570
4;2018-03-01;10:54:51.369000;type1;training;train;1 2 - 2 - 2 - 4 - 2 3;5;4;1;1 2;2;313.453
4;2018-03-01;10:54:51.369000;type1;training;train;1 2 - 2 - 2 - 4 - 2 3;5;4;2;2;2;178.640
4;2018-03-01;10:54:51.369000;type1;training;train;1 2 - 2 - 2 - 4 - 2 3;5;4;3;2;4 4;290.165
4;2018-03-01;10:54:51.369000;type1;training;train;1 2 - 2 - 2 - 4 - 2 3;5;4;4;4 4;2 3;311.234
4;2018-03-01;10:54:51.369000;type1;training;train;1 2 - 2 - 2 - 4 - 2 3;6;4;0;0;1 2;583.959
4;2018-03-01;10:54:51.369000;type1;training;train;1 2 - 2 - 2 - 4 - 2 3;6;4;1;1 2;2;367.758
4;2018-03-01;10:54:51.369000;type1;training;train;1 2 - 2 - 2 - 4 - 2 3;6;4;2;2;2;203.541
4;2018-03-01;10:54:51.369000;type1;training;train;1 2 - 2 - 2 - 4 - 2 3;6;4;3;2;4 4;292.160
4;2018-03-01;10:54:51.369000;type1;training;train;1 2 - 2 - 2 - 4 - 2 3;6;4;4;4 4;2 3;293.718
4;2018-03-01;10:54:51.369000;type1;training;train;1 2 - 2 - 2 - 4 - 2 3;7;4;0;0;1 2;545.943
4;2018-03-01;10:54:51.369000;type1;training;train;1 2 - 2 - 2 - 4 - 2 3;7;4;1;1 2;2;324.641
4;2018-03-01;10:54:51.369000;type1;training;train;1 2 - 2 - 2 - 4 - 2 3;7;4;2;2;2;185.019
4;2018-03-01;10:54:51.369000;type1;training;train;1 2 - 2 - 2 - 4 - 2 3;7;4;3;2;4;210.439
4;2018-03-01;10:54:51.369000;type1;training;train;1 2 - 2 - 2 - 4 - 2 3;7;4;4;4;2 3;188.432
4;2018-03-01;10:54:51.369000;type1;training;train;1 2 - 2 - 2 - 4 - 2 3;8;5;0;0;1 2;463.703
4;2018-03-01;10:54:51.369000;type1;training;train;1 2 - 2 - 2 - 4 - 2 3;8;5;1;1 2;2;262.733
4;2018-03-01;10:54:51.369000;type1;training;train;1 2 - 2 - 2 - 4 - 2 3;8;5;2;2;2;169.288
4;2018-03-01;10:54:51.369000;type1;training;train;1 2 - 2 - 2 - 4 - 2 3;8;5;3;2;4;187.203
4;2018-03-01;10:54:51.369000;type1;training;train;1 2 - 2 - 2 - 4 - 2 3;8;5;4;4;2 3;176.210
4;2018-03-01;10:54:51.369000;type1;training;train;2 - 1 4 - 2 - 1 - 1 4;1;1;0;0;2;1525.486
4;2018-03-01;10:54:51.369000;type1;training;train;2 - 1 4 - 2 - 1 - 1 4;1;1;1;2;1 4;303.523
4;2018-03-01;10:54:51.369000;type1;training;train;2 - 1 4 - 2 - 1 - 1 4;1;1;2;1 4;2;368.493
4;2018-03-01;10:54:51.369000;type1;training;train;2 - 1 4 - 2 - 1 - 1 4;1;1;3;2;1;484.854
4;2018-03-01;10:54:51.369000;type1;training;train;2 - 1 4 - 2 - 1 - 1 4;1;1;4;1;1 4;317.430
4;2018-03-01;10:54:51.369000;type1;training;train;2 - 1 4 - 2 - 1 - 1 4;2;2;0;0;2;722.186
4;2018-03-01;10:54:51.369000;type1;training;train;2 - 1 4 - 2 - 1 - 1 4;2;2;1;2;1 4;228.484
4;2018-03-01;10:54:51.369000;type1;training;train;2 - 1 4 - 2 - 1 - 1 4;2;2;2;1 4;2;276.640
4;2018-03-01;10:54:51.369000;type1;training;train;2 - 1 4 - 2 - 1 - 1 4;2;2;3;2;1;247.722
4;2018-03-01;10:54:51.369000;type1;training;train;2 - 1 4 - 2 - 1 - 1 4;2;2;4;1;1 4;232.378
4;2018-03-01;10:54:51.369000;type1;training;train;2 - 1 4 - 2 - 1 - 1 4;3;3;0;0;2;642.337
4;2018-03-01;10:54:51.369000;type1;training;train;2 - 1 4 - 2 - 1 - 1 4;3;3;1;2;1 4;219.553
4;2018-03-01;10:54:51.369000;type1;training;train;2 - 1 4 - 2 - 1 - 1 4;3;3;2;1 4;2;244.432
4;2018-03-01;10:54:51.369000;type1;training;train;2 - 1 4 - 2 - 1 - 1 4;3;3;3;2;1;217.595
4;2018-03-01;10:54:51.369000;type1;training;train;2 - 1 4 - 2 - 1 - 1 4;3;3;4;1;1 4;196.296
4;2018-03-01;10:54:51.369000;type1;training;train;2 - 1 4 - 2 - 1 - 1 4;4;4;0;0;2;578.033
4;2018-03-01;10:54:51.369000;type1;training;train;2 - 1 4 - 2 - 1 - 1 4;4;4;1;2;1 4;219.147
4;2018-03-01;10:54:51.369000;type1;training;train;2 - 1 4 - 2 - 1 - 1 4;4;4;2;1 4;2;287.794
4;2018-03-01;10:54:51.369000;type1;training;train;2 - 1 4 - 2 - 1 - 1 4;4;4;3;2;1;223.661
4;2018-03-01;10:54:51.369000;type1;training;train;2 - 1 4 - 2 - 1 - 1 4;4;4;4;1;1 4;209.405
4;2018-03-01;10:54:51.369000;type1;training;train;2 - 1 4 - 2 - 1 - 1 4;5;5;0;0;2;484.428
4;2018-03-01;10:54:51.369000;type1;training;train;2 - 1 4 - 2 - 1 - 1 4;5;5;1;2;1 4;229.889
4;2018-03-01;10:54:51.369000;type1;training;train;2 - 1 4 - 2 - 1 - 1 4;5;5;2;1 4;2;257.935
4;2018-03-01;10:54:51.369000;type1;training;train;2 - 1 4 - 2 - 1 - 1 4;5;5;3;2;1;210.527
4;2018-03-01;10:54:51.369000;type1;training;train;2 - 1 4 - 2 - 1 - 1 4;5;5;4;1;1 4;241.188
4;2018-03-01;10:54:51.369000;type1;training;train;2 - 4 - 4 - 2 3 - 1 4;1;1;0;0;2;1373.893
4;2018-03-01;10:54:51.369000;type1;training;train;2 - 4 - 4 - 2 3 - 1 4;1;1;1;2;4;268.294
4;2018-03-01;10:54:51.369000;type1;training;train;2 - 4 - 4 - 2 3 - 1 4;1;1;2;4;4;166.914
4;2018-03-01;10:54:51.369000;type1;training;train;2 - 4 - 4 - 2 3 - 1 4;1;1;3;4;2 3;227.472
4;2018-03-01;10:54:51.369000;type1;training;train;2 - 4 - 4 - 2 3 - 1 4;1;1;4;2 3;1 4;208.374
4;2018-03-01;10:54:51.369000;type1;training;train;2 - 4 - 4 - 2 3 - 1 4;2;2;0;0;2;824.284
4;2018-03-01;10:54:51.369000;type1;training;train;2 - 4 - 4 - 2 3 - 1 4;2;2;1;2;4;213.555
4;2018-03-01;10:54:51.369000;type1;training;train;2 - 4 - 4 - 2 3 - 1 4;2;2;2;4;4;162.432
4;2018-03-01;10:54:51.369000;type1;training;train;2 - 4 - 4 - 2 3 - 1 4;2;2;3;4;2 3;192.184
4;2018-03-01;10:54:51.369000;type1;training;train;2 - 4 - 4 - 2 3 - 1 4;2;2;4;2 3;1 4;209.099
4;2018-03-01;10:54:51.369000;type1;training;train;2 - 4 - 4 - 2 3 - 1 4;3;3;0;0;2;418.016
4;2018-03-01;10:54:51.369000;type1;training;train;2 - 4 - 4 - 2 3 - 1 4;3;3;1;2;4;212.053
4;2018-03-01;10:54:51.369000;type1;training;train;2 - 4 - 4 - 2 3 - 1 4;3;3;2;4;4;142.635
4;2018-03-01;10:54:51.369000;type1;training;train;2 - 4 - 4 - 2 3 - 1 4;3;3;3;4;2 3;211.959
4;2018-03-01;10:54:51.369000;type1;training;train;2 - 4 - 4 - 2 3 - 1 4;3;3;4;2 3;1 4;234.512
4;2018-03-01;10:54:51.369000;type1;training;train;2 - 4 - 4 - 2 3 - 1 4;4;4;0;0;2;447.753
4;2018-03-01;10:54:51.369000;type1;training;train;2 - 4 - 4 - 2 3 - 1 4;4;4;1;2;4;207.561
4;2018-03-01;10:54:51.369000;type1;training;train;2 - 4 - 4 - 2 3 - 1 4;4;4;2;4;4;152.264
4;2018-03-01;10:54:51.369000;type1;training;train;2 - 4 - 4 - 2 3 - 1 4;4;4;3;4;2 3;190.881
4;2018-03-01;10:54:51.369000;type1;training;train;2 - 4 - 4 - 2 3 - 1 4;4;4;4;2 3;1 4;212.395
4;2018-03-01;10:54:51.369000;type1;training;train;2 - 4 - 4 - 2 3 - 1 4;5;5;0;0;2;423.768
4;2018-03-01;10:54:51.369000;type1;training;train;2 - 4 - 4 - 2 3 - 1 4;5;5;1;2;4;208.786
4;2018-03-01;10:54:51.369000;type1;training;train;2 - 4 - 4 - 2 3 - 1 4;5;5;2;4;4;141.092
4;2018-03-01;10:54:51.369000;type1;training;train;2 - 4 - 4 - 2 3 - 1 4;5;5;3;4;2 3;207.944
4;2018-03-01;10:54:51.369000;type1;training;train;2 - 4 - 4 - 2 3 - 1 4;5;5;4;2 3;1 4;209.525
5;2018-03-01;19:27:18.746000;type1;training;train;1 2 - 2 - 2 - 4 - 2 3;1;1;0;0;1 2;870.975
5;2018-03-01;19:27:18.746000;type1;training;train;1 2 - 2 - 2 - 4 - 2 3;1;1;1;1 2;2;458.525
5;2018-03-01;19:27:18.746000;type1;training;train;1 2 - 2 - 2 - 4 - 2 3;1;1;2;2;2;790.579
5;2018-03-01;19:27:18.746000;type1;training;train;1 2 - 2 - 2 - 4 - 2 3;1;1;3;2;4;737.830
5;2018-03-01;19:27:18.746000;type1;training;train;1 2 - 2 - 2 - 4 - 2 3;1;1;4;4;2 3;397.473
5;2018-03-01;19:27:18.746000;type1;training;train;1 2 - 2 - 2 - 4 - 2 3;2;2;0;0;1 2;719.935
5;2018-03-01;19:27:18.746000;type1;training;train;1 2 - 2 - 2 - 4 - 2 3;2;2;1;1 2;2;438.432
5;2018-03-01;19:27:18.746000;type1;training;train;1 2 - 2 - 2 - 4 - 2 3;2;2;2;2;2;302.474
5;2018-03-01;19:27:18.746000;type1;training;train;1 2 - 2 - 2 - 4 - 2 3;2;2;3;2;4;287.896
5;2018-03-01;19:27:18.746000;type1;training;train;1 2 - 2 - 2 - 4 - 2 3;2;2;4;4;2 3;245.408
5;2018-03-01;19:27:18.746000;type1;training;train;1 2 - 2 - 2 - 4 - 2 3;3;3;0;0;1 2;631.661
5;2018-03-01;19:27:18.746000;type1;training;train;1 2 - 2 - 2 - 4 - 2 3;3;3;1;1 2;2;286.632
5;2018-03-01;19:27:18.746000;type1;training;train;1 2 - 2 - 2 - 4 - 2 3;3;3;2;2;2;156.509
5;2018-03-01;19:27:18.746000;type1;training;train;1 2 - 2 - 2 - 4 - 2 3;3;3;3;2;4;216.022
5;2018-03-01;19:27:18.746000;type1;training;train;1 2 - 2 - 2 - 4 - 2 3;3;3;4;4;2 3;183.458
5;2018-03-01;19:27:18.746000;type1;training;train;1 2 - 2 - 2 - 4 - 2 3;4;4;0;0;1 2 3;669.954
5;2018-03-01;19:27:18.746000;type1;training;train;1 2 - 2 - 2 - 4 - 2 3;4;4;1;1 2 3;2;262.231
5;2018-03-01;19:27:18.746000;type1;training;train;1 2 - 2 - 2 - 4 - 2 3;4;4;2;2;2;171.129
5;2018-03-01;19:27:18.746000;type1;training;train;1 2 - 2 - 2 - 4 - 2 3;4;4;3;2;4;188.016
5;2018-03-01;19:27:18.746000;type1;training;train;1 2 - 2 - 2 - 4 - 2 3;4;4;4;4;2 3;162.902
5;2018-03-01;19:27:18.746000;type1;training;train;1 2 - 2 - 2 - 4 - 2 3;5;4;0;0;1 2;496.795
5;2018-03-01;19:27:18.746000;type1;training;train;1 2 - 2 - 2 - 4 - 2 3;5;4;1;1 2;2;254.943
5;2018-03-01;19:27:18.746000;type1;training;train;1 2 - 2 - 2 - 4 - 2 3;5;4;2;2;2;150.775
5;2018-03-01;19:27:18.746000;type1;training;train;1 2 - 2 - 2 - 4 - 2 3;5;4;3;2;4;208.476
5;2018-03-01;19:27:18.746000;type1;training;train;1 2 - 2 - 2 - 4 - 2 3;5;4;4;4;2 3;199.330
5;2018-03-01;19:27:18.746000;type1;training;train;1 2 - 2 - 2 - 4 - 2 3;6;5;0;0;1 2;971.792
5;2018-03-01;19:27:18.746000;type1;training;train;1 2 - 2 - 2 - 4 - 2 3;6;5;1;1 2;2;230.488
5;2018-03-01;19:27:18.746000;type1;training;train;1 2 - 2 - 2 - 4 - 2 3;6;5;2;2;2;158.260
5;2018-03-01;19:27:18.746000;type1;training;train;1 2 - 2 - 2 - 4 - 2 3;6;5;3;2;4;205.476
5;2018-03-01;19:27:18.746000;type1;training;train;1 2 - 2 - 2 - 4 - 2 3;6;5;4;4;2 3;165.426
5;2018-03-01;19:27:18.746000;type1;training;train;2 - 1 4 - 2 - 1 - 1 4;1;1;0;0;2;1616.793
5;2018-03-01;19:27:18.746000;type1;training;train;2 - 1 4 - 2 - 1 - 1 4;1;1;1;2;1 4;312.927
5;2018-03-01;19:27:18.746000;type1;training;train;2 - 1 4 - 2 - 1 - 1 4;1;1;2;1 4;2;339.498
5;2018-03-01;19:27:18.746000;type1;training;train;2 - 1 4 - 2 - 1 - 1 4;1;1;3;2;1;390.488
5;2018-03-01;19:27:18.746000;type1;training;train;2 - 1 4 - 2 - 1 - 1 4;1;1;4;1;1 4;273.278
5;2018-03-01;19:27:18.746000;type1;training;train;2 - 1 4 - 2 - 1 - 1 4;2;2;0;0;2;776.147
5;2018-03-01;19:27:18.746000;type1;training;train;2 - 1 4 - 2 - 1 - 1 4;2;2;1;2;1 4;228.468
5;2018-03-01;19:27:18.746000;type1;training;train;2 - 1 4 - 2 - 1 - 1 4;2;2;2;1 4;2;263.440
5;2018-03-01;19:27:18.746000;type1;training;train;2 - 1 4 - 2 - 1 - 1 4;2;2;3;2;2;217.830
5;2018-03-01;19:27:18.746000;type1;training;train;2 - 1 4 - 2 - 1 - 1 4;2;2;4;2;2;937.713
5;2018-03-01;19:27:18.746000;type1;training;train;2 - 1 4 - 2 - 1 - 1 4;3;2;0;0;2;1255.390
5;2018-03-01;19:27:18.746000;type1;training;train;2 - 1 4 - 2 - 1 - 1 4;3;2;1;2;1 4;276.240
5;2018-03-01;19:27:18.746000;type1;training;train;2 - 1 4 - 2 - 1 - 1 4;3;2;2;1 4;2;289.121
5;2018-03-01;19:27:18.746000;type1;training;train;2 - 1 4 - 2 - 1 - 1 4;3;2;3;2;1;247.029
5;2018-03-01;19:27:18.746000;type1;training;train;2 - 1 4 - 2 - 1 - 1 4;3;2;4;1;1;210.731
5;2018-03-01;19:27:18.746000;type1;training;train;2 - 1 4 - 2 - 1 - 1 4;4;2;0;0;2;802.131
5;2018-03-01;19:27:18.746000;type1;training;train;2 - 1 4 - 2 - 1 - 1 4;4;2;1;2;1 4;237.441
5;2018-03-01;19:27:18.746000;type1;training;train;2 - 1 4 - 2 - 1 - 1 4;4;2;2;1 4;2;248.104
5;2018-03-01;19:27:18.746000;type1;training;train;2 - 1 4 - 2 - 1 - 1 4;4;2;3;2;1;207.357
5;2018-03-01;19:27:18.746000;type1;training;train;2 - 1 4 - 2 - 1 - 1 4;4;2;4;1;1 4;199.983
5;2018-03-01;19:27:18.746000;type1;training;train;2 - 1 4 - 2 - 1 - 1 4;5;3;0;0;2;767.610
5;2018-03-01;19:27:18.746000;type1;training;train;2 - 1 4 - 2 - 1 - 1 4;5;3;1;2;1 4;216.551
5;2018-03-01;19:27:18.746000;type1;training;train;2 - 1 4 - 2 - 1 - 1 4;5;3;2;1 4;2;300.212
5;2018-03-01;19:27:18.746000;type1;training;train;2 - 1 4 - 2 - 1 - 1 4;5;3;3;2;1;209.839
5;2018-03-01;19:27:18.746000;type1;training;train;2 - 1 4 - 2 - 1 - 1 4;5;3;4;1;1 4;187.601
5;2018-03-01;19:27:18.746000;type1;training;train;2 - 1 4 - 2 - 1 - 1 4;6;4;0;0;2;584.016
5;2018-03-01;19:27:18.746000;type1;training;train;2 - 1 4 - 2 - 1 - 1 4;6;4;1;2;1 4;195.062
5;2018-03-01;19:27:18.746000;type1;training;train;2 - 1 4 - 2 - 1 - 1 4;6;4;2;1 4;2;233.513
5;2018-03-01;19:27:18.746000;type1;training;train;2 - 1 4 - 2 - 1 - 1 4;6;4;3;2;1;185.448
5;2018-03-01;19:27:18.746000;type1;training;train;2 - 1 4 - 2 - 1 - 1 4;6;4;4;1;1 4;182.201
5;2018-03-01;19:27:18.746000;type1;training;train;2 - 1 4 - 2 - 1 - 1 4;7;5;0;0;2;1263.424
5;2018-03-01;19:27:18.746000;type1;training;train;2 - 1 4 - 2 - 1 - 1 4;7;5;1;2;1 4;205.565
5;2018-03-01;19:27:18.746000;type1;training;train;2 - 1 4 - 2 - 1 - 1 4;7;5;2;1 4;1 2;249.196
5;2018-03-01;19:27:18.746000;type1;training;train;2 - 1 4 - 2 - 1 - 1 4;7;5;3;1 2;1;901.418
5;2018-03-01;19:27:18.746000;type1;training;train;2 - 1 4 - 2 - 1 - 1 4;7;5;4;1;1 4;185.880
5;2018-03-01;19:27:18.746000;type1;training;train;2 - 1 4 - 2 - 1 - 1 4;8;5;0;0;2;612.933
5;2018-03-01;19:27:18.746000;type1;training;train;2 - 1 4 - 2 - 1 - 1 4;8;5;1;2;1 4;222.511
5;2018-03-01;19:27:18.746000;type1;training;train;2 - 1 4 - 2 - 1 - 1 4;8;5;2;1 4;2;241.425
5;2018-03-01;19:27:18.746000;type1;training;train;2 - 1 4 - 2 - 1 - 1 4;8;5;3;2;1;191.902
5;2018-03-01;19:27:18.746000;type1;training;train;2 - 1 4 - 2 - 1 - 1 4;8;5;4;1;4;179.542
5;2018-03-01;19:27:18.746000;type1;training;train;2 - 1 4 - 2 - 1 - 1 4;9;5;0;0;2;549.291
5;2018-03-01;19:27:18.746000;type1;training;train;2 - 1 4 - 2 - 1 - 1 4;9;5;1;2;1 4;227.866
5;2018-03-01;19:27:18.746000;type1;training;train;2 - 1 4 - 2 - 1 - 1 4;9;5;2;1 4;2;248.593
5;2018-03-01;19:27:18.746000;type1;training;train;2 - 1 4 - 2 - 1 - 1 4;9;5;3;2;1;248.700
5;2018-03-01;19:27:18.746000;type1;training;train;2 - 1 4 - 2 - 1 - 1 4;9;5;4;1;1 4;262.430
5;2018-03-01;19:27:18.746000;type1;training;train;2 - 4 - 4 - 2 3 - 1 4;1;1;0;0;2;1262.402
5;2018-03-01;19:27:18.746000;type1;training;train;2 - 4 - 4 - 2 3 - 1 4;1;1;1;2;4;294.394
5;2018-03-01;19:27:18.746000;type1;training;train;2 - 4 - 4 - 2 3 - 1 4;1;1;2;4;4;185.663
5;2018-03-01;19:27:18.746000;type1;training;train;2 - 4 - 4 - 2 3 - 1 4;1;1;3;4;2 3;269.737
5;2018-03-01;19:27:18.746000;type1;training;train;2 - 4 - 4 - 2 3 - 1 4;1;1;4;2 3;1 4;243.437
5;2018-03-01;19:27:18.746000;type1;training;train;2 - 4 - 4 - 2 3 - 1 4;2;2;0;0;2;551.802
5;2018-03-01;19:27:18.746000;type1;training;train;2 - 4 - 4 - 2 3 - 1 4;2;2;1;2;4;204.439
5;2018-03-01;19:27:18.746000;type1;training;train;2 - 4 - 4 - 2 3 - 1 4;2;2;2;4;4;153.245
5;2018-03-01;19:27:18.746000;type1;training;train;2 - 4 - 4 - 2 3 - 1 4;2;2;3;4;3;193.637
5;2018-03-01;19:27:18.746000;type1;training;train;2 - 4 - 4 - 2 3 - 1 4;2;2;4;3;1 2 4;254.485
5;2018-03-01;19:27:18.746000;type1;training;train;2 - 4 - 4 - 2 3 - 1 4;3;2;0;0;2;629.591
5;2018-03-01;19:27:18.746000;type1;training;train;2 - 4 - 4 - 2 3 - 1 4;3;2;1;2;4;224.000
5;2018-03-01;19:27:18.746000;type1;training;train;2 - 4 - 4 - 2 3 - 1 4;3;2;2;4;4;152.091
5;2018-03-01;19:27:18.746000;type1;training;train;2 - 4 - 4 - 2 3 - 1 4;3;2;3;4;2 3;209.388
5;2018-03-01;19:27:18.746000;type1;training;train;2 - 4 - 4 - 2 3 - 1 4;3;2;4;2 3;1 4;242.019
5;2018-03-01;19:27:18.746000;type1;training;train;2 - 4 - 4 - 2 3 - 1 4;4;3;0;0;2;1031.452
5;2018-03-01;19:27:18.746000;type1;training;train;2 - 4 - 4 - 2 3 - 1 4;4;3;1;2;4;212.412
5;2018-03-01;19:27:18.746000;type1;training;train;2 - 4 - 4 - 2 3 - 1 4;4;3;2;4;4;147.479
5;2018-03-01;19:27:18.746000;type1;training;train;2 - 4 - 4 - 2 3 - 1 4;4;3;3;4;2 3;215.722
5;2018-03-01;19:27:18.746000;type1;training;train;2 - 4 - 4 - 2 3 - 1 4;4;3;4;2 3;1 4;172.301
5;2018-03-01;19:27:18.746000;type1;training;train;2 - 4 - 4 - 2 3 - 1 4;5;4;0;0;2;695.964
5;2018-03-01;19:27:18.746000;type1;training;train;2 - 4 - 4 - 2 3 - 1 4;5;4;1;2;4;222.470
5;2018-03-01;19:27:18.746000;type1;training;train;2 - 4 - 4 - 2 3 - 1 4;5;4;2;4;4;135.495
5;2018-03-01;19:27:18.746000;type1;training;train;2 - 4 - 4 - 2 3 - 1 4;5;4;3;4;2 3;216.004
5;2018-03-01;19:27:18.746000;type1;training;train;2 - 4 - 4 - 2 3 - 1 4;5;4;4;2 3;1 4;214.969
5;2018-03-01;19:27:18.746000;type1;training;train;2 - 4 - 4 - 2 3 - 1 4;6;5;0;0;2;503.244
5;2018-03-01;19:27:18.746000;type1;training;train;2 - 4 - 4 - 2 3 - 1 4;6;5;1;2;4;215.739
5;2018-03-01;19:27:18.746000;type1;training;train;2 - 4 - 4 - 2 3 - 1 4;6;5;2;4;4;125.780
5;2018-03-01;19:27:18.746000;type1;training;train;2 - 4 - 4 - 2 3 - 1 4;6;5;3;4;2 3;209.124
5;2018-03-01;19:27:18.746000;type1;training;train;2 - 4 - 4 - 2 3 - 1 4;6;5;4;2 3;1 4;192.997
5;2018-03-01;19:27:18.746000;type1;training;train;3 4 - 1 3 - 3 4 - 2 - 2;1;1;0;0;3 4;2406.158
5;2018-03-01;19:27:18.746000;type1;training;train;3 4 - 1 3 - 3 4 - 2 - 2;1;1;1;3 4;1 3;841.847
5;2018-03-01;19:27:18.746000;type1;training;train;3 4 - 1 3 - 3 4 - 2 - 2;1;1;2;1 3;4;352.879
5;2018-03-01;19:27:18.746000;type1;training;train;3 4 - 1 3 - 3 4 - 2 - 2;1;1;3;4;3;44.286
5;2018-03-01;19:27:18.746000;type1;training;train;3 4 - 1 3 - 3 4 - 2 - 2;1;1;4;3;2;276.013
5;2018-03-01;19:27:18.746000;type1;training;train;3 4 - 1 3 - 3 4 - 2 - 2;2;1;0;0;3 4;688.678
5;2018-03-01;19:27:18.746000;type1;training;train;3 4 - 1 3 - 3 4 - 2 - 2;2;1;1;3 4;1 3;568.053
5;2018-03-01;19:27:18.746000;type1;training;train;3 4 - 1 3 - 3 4 - 2 - 2;2;1;2;1 3;3 4;460.897
5;2018-03-01;19:27:18.746000;type1;training;train;3 4 - 1 3 - 3 4 - 2 - 2;2;1;3;3 4;2;275.326
5;2018-03-01;19:27:18.746000;type1;training;train;3 4 - 1 3 - 3 4 - 2 - 2;2;1;4;2;2;185.109
5;2018-03-01;19:27:18.746000;type1;training;train;3 4 - 1 3 - 3 4 - 2 - 2;3;2;0;0;3 4;501.194
5;2018-03-01;19:27:18.746000;type1;training;train;3 4 - 1 3 - 3 4 - 2 - 2;3;2;1;3 4;1 3;229.547
5;2018-03-01;19:27:18.746000;type1;training;train;3 4 - 1 3 - 3 4 - 2 - 2;3;2;2;1 3;3 4;255.406
5;2018-03-01;19:27:18.746000;type1;training;train;3 4 - 1 3 - 3 4 - 2 - 2;3;2;3;3 4;2;216.019
5;2018-03-01;19:27:18.746000;type1;training;train;3 4 - 1 3 - 3 4 - 2 - 2;3;2;4;2;2;202.958
5;2018-03-01;19:27:18.746000;type1;training;train;3 4 - 1 3 - 3 4 - 2 - 2;4;3;0;0;3 4;521.319
5;2018-03-01;19:27:18.746000;type1;training;train;3 4 - 1 3 - 3 4 - 2 - 2;4;3;1;3 4;1 3;227.125
5;2018-03-01;19:27:18.746000;type1;training;train;3 4 - 1 3 - 3 4 - 2 - 2;4;3;2;1 3;3 4;251.103
5;2018-03-01;19:27:18.746000;type1;training;train;3 4 - 1 3 - 3 4 - 2 - 2;4;3;3;3 4;2;346.649
5;2018-03-01;19:27:18.746000;type1;training;train;3 4 - 1 3 - 3 4 - 2 - 2;4;3;4;2;2;180.259
5;2018-03-01;19:27:18.746000;type1;training;train;3 4 - 1 3 - 3 4 - 2 - 2;5;4;0;0;3 4;559.364
5;2018-03-01;19:27:18.746000;type1;training;train;3 4 - 1 3 - 3 4 - 2 - 2;5;4;1;3 4;1 3;213.983
5;2018-03-01;19:27:18.746000;type1;training;train;3 4 - 1 3 - 3 4 - 2 - 2;5;4;2;1 3;3 4;229.603
5;2018-03-01;19:27:18.746000;type1;training;train;3 4 - 1 3 - 3 4 - 2 - 2;5;4;3;3 4;2;207.452
5;2018-03-01;19:27:18.746000;type1;training;train;3 4 - 1 3 - 3 4 - 2 - 2;5;4;4;2;2;158.151
5;2018-03-01;19:27:18.746000;type1;training;train;3 4 - 1 3 - 3 4 - 2 - 2;6;5;0;0;3 4;671.875
5;2018-03-01;19:27:18.746000;type1;training;train;3 4 - 1 3 - 3 4 - 2 - 2;6;5;1;3 4;1 3;214.679
5;2018-03-01;19:27:18.746000;type1;training;train;3 4 - 1 3 - 3 4 - 2 - 2;6;5;2;1 3;3 4;282.604
5;2018-03-01;19:27:18.746000;type1;training;train;3 4 - 1 3 - 3 4 - 2 - 2;6;5;3;3 4;2;286.474
5;2018-03-01;19:27:18.746000;type1;training;train;3 4 - 1 3 - 3 4 - 2 - 2;6;5;4;2;2;172.160
6;2018-03-02;08:48:22.947000;type1;testing;test;1 2 - 1 3 - 3 4 - 4 - 2 3;1;1;0;0;2;1889.830
6;2018-03-02;08:48:22.947000;type1;testing;test;1 2 - 1 3 - 3 4 - 4 - 2 3;1;1;1;2;1;9.836
6;2018-03-02;08:48:22.947000;type1;testing;test;1 2 - 1 3 - 3 4 - 4 - 2 3;1;1;2;1;3;467.353
6;2018-03-02;08:48:22.947000;type1;testing;test;1 2 - 1 3 - 3 4 - 4 - 2 3;1;1;3;3;3;1237.309
6;2018-03-02;08:48:22.947000;type1;testing;test;1 2 - 1 3 - 3 4 - 4 - 2 3;1;1;4;3;4;25.158
6;2018-03-02;08:48:22.947000;type1;testing;test;1 2 - 1 3 - 3 4 - 4 - 2 3;2;1;0;0;1;905.365
6;2018-03-02;08:48:22.947000;type1;testing;test;1 2 - 1 3 - 3 4 - 4 - 2 3;2;1;1;1;2;17.417
6;2018-03-02;08:48:22.947000;type1;testing;test;1 2 - 1 3 - 3 4 - 4 - 2 3;2;1;2;2;1 3;721.323
6;2018-03-02;08:48:22.947000;type1;testing;test;1 2 - 1 3 - 3 4 - 4 - 2 3;2;1;3;1 3;3 4;838.595
6;2018-03-02;08:48:22.947000;type1;testing;test;1 2 - 1 3 - 3 4 - 4 - 2 3;2;1;4;3 4;4;672.905
6;2018-03-02;08:48:22.947000;type1;testing;test;1 2 - 1 3 - 3 4 - 4 - 2 3;3;1;0;0;1 2;910.290
6;2018-03-02;08:48:22.947000;type1;testing;test;1 2 - 1 3 - 3 4 - 4 - 2 3;3;1;1;1 2;1 3;517.293
6;2018-03-02;08:48:22.947000;type1;testing;test;1 2 - 1 3 - 3 4 - 4 - 2 3;3;1;2;1 3;3 4;433.876
6;2018-03-02;08:48:22.947000;type1;testing;test;1 2 - 1 3 - 3 4 - 4 - 2 3;3;1;3;3 4;4;451.287
6;2018-03-02;08:48:22.947000;type1;testing;test;1 2 - 1 3 - 3 4 - 4 - 2 3;3;1;4;4;2 3;707.555
6;2018-03-02;08:48:22.947000;type1;testing;test;1 2 - 1 3 - 3 4 - 4 - 2 3;4;2;0;0;1 2;1138.718
6;2018-03-02;08:48:22.947000;type1;testing;test;1 2 - 1 3 - 3 4 - 4 - 2 3;4;2;1;1 2;1 3;1323.588
6;2018-03-02;08:48:22.947000;type1;testing;test;1 2 - 1 3 - 3 4 - 4 - 2 3;4;2;2;1 3;3 4;476.202
6;2018-03-02;08:48:22.947000;type1;testing;test;1 2 - 1 3 - 3 4 - 4 - 2 3;4;2;3;3 4;4;475.550
6;2018-03-02;08:48:22.947000;type1;testing;test;1 2 - 1 3 - 3 4 - 4 - 2 3;4;2;4;4;2 3;312.628
6;2018-03-02;08:48:22.947000;type1;testing;test;1 2 - 1 3 - 3 4 - 4 - 2 3;5;3;0;0;1;1732.202
6;2018-03-02;08:48:22.947000;type1;testing;test;1 2 - 1 3 - 3 4 - 4 - 2 3;5;3;1;1;3 4;1376.365
6;2018-03-02;08:48:22.947000;type1;testing;test;1 2 - 1 3 - 3 4 - 4 - 2 3;5;3;2;3 4;4;442.152
6;2018-03-02;08:48:22.947000;type1;testing;test;1 2 - 1 3 - 3 4 - 4 - 2 3;5;3;3;4;3;360.936
6;2018-03-02;08:48:22.947000;type1;testing;test;1 2 - 1 3 - 3 4 - 4 - 2 3;5;3;4;3;2;18.993
6;2018-03-02;08:48:22.947000;type1;testing;test;1 2 - 1 3 - 3 4 - 4 - 2 3;6;3;0;0;1 2;1435.009
6;2018-03-02;08:48:22.947000;type1;testing;test;1 2 - 1 3 - 3 4 - 4 - 2 3;6;3;1;1 2;1 3;1139.797
6;2018-03-02;08:48:22.947000;type1;testing;test;1 2 - 1 3 - 3 4 - 4 - 2 3;6;3;2;1 3;3 4;551.114
6;2018-03-02;08:48:22.947000;type1;testing;test;1 2 - 1 3 - 3 4 - 4 - 2 3;6;3;3;3 4;4;390.820
6;2018-03-02;08:48:22.947000;type1;testing;test;1 2 - 1 3 - 3 4 - 4 - 2 3;6;3;4;4;2 3;303.567
6;2018-03-02;08:48:22.947000;type1;testing;test;1 2 - 1 3 - 3 4 - 4 - 2 3;7;4;0;0;1 2;967.596
6;2018-03-02;08:48:22.947000;type1;testing;test;1 2 - 1 3 - 3 4 - 4 - 2 3;7;4;1;1 2;1 3;832.283
6;2018-03-02;08:48:22.947000;type1;testing;test;1 2 - 1 3 - 3 4 - 4 - 2 3;7;4;2;1 3;3 4;738.904
6;2018-03-02;08:48:22.947000;type1;testing;test;1 2 - 1 3 - 3 4 - 4 - 2 3;7;4;3;3 4;4;476.491
6;2018-03-02;08:48:22.947000;type1;testing;test;1 2 - 1 3 - 3 4 - 4 - 2 3;7;4;4;4;2 3;406.324
6;2018-03-02;08:48:22.947000;type1;testing;test;1 2 - 1 3 - 3 4 - 4 - 2 3;8;5;0;0;1 2;1145.919
6;2018-03-02;08:48:22.947000;type1;testing;test;1 2 - 1 3 - 3 4 - 4 - 2 3;8;5;1;1 2;1 3;1003.288
6;2018-03-02;08:48:22.947000;type1;testing;test;1 2 - 1 3 - 3 4 - 4 - 2 3;8;5;2;1 3;3 4;631.059
6;2018-03-02;08:48:22.947000;type1;testing;test;1 2 - 1 3 - 3 4 - 4 - 2 3;8;5;3;3 4;4;395.601
6;2018-03-02;08:48:22.947000;type1;testing;test;1 2 - 1 3 - 3 4 - 4 - 2 3;8;5;4;4;2 3;350.247
6;2018-03-02;08:48:22.947000;type1;testing;test;1 2 - 1 4 - 2 4 - 1 4 - 4;1;1;0;0;3;2287.023
6;2018-03-02;08:48:22.947000;type1;testing;test;1 2 - 1 4 - 2 4 - 1 4 - 4;1;1;1;3;1;23.210
6;2018-03-02;08:48:22.947000;type1;testing;test;1 2 - 1 4 - 2 4 - 1 4 - 4;1;1;2;1;1;596.582
6;2018-03-02;08:48:22.947000;type1;testing;test;1 2 - 1 4 - 2 4 - 1 4 - 4;1;1;3;1;4;10.200
6;2018-03-02;08:48:22.947000;type1;testing;test;1 2 - 1 4 - 2 4 - 1 4 - 4;2;1;0;0;2;1729.628
6;2018-03-02;08:48:22.947000;type1;testing;test;1 2 - 1 4 - 2 4 - 1 4 - 4;2;1;1;2;1;9.215
6;2018-03-02;08:48:22.947000;type1;testing;test;1 2 - 1 4 - 2 4 - 1 4 - 4;2;1;2;1;1;713.007
6;2018-03-02;08:48:22.947000;type1;testing;test;1 2 - 1 4 - 2 4 - 1 4 - 4;2;1;3;1;4;12.953
6;2018-03-02;08:48:22.947000;type1;testing;test;1 2 - 1 4 - 2 4 - 1 4 - 4;2;1;4;4;2 4;1297.014
6;2018-03-02;08:48:22.947000;type1;testing;test;1 2 - 1 4 - 2 4 - 1 4 - 4;3;1;0;0;1 3;968.567
6;2018-03-02;08:48:22.947000;type1;testing;test;1 2 - 1 4 - 2 4 - 1 4 - 4;3;1;1;1 3;1 4;549.956
6;2018-03-02;08:48:22.947000;type1;testing;test;1 2 - 1 4 - 2 4 - 1 4 - 4;3;1;2;1 4;2 4;717.553
6;2018-03-02;08:48:22.947000;type1;testing;test;1 2 - 1 4 - 2 4 - 1 4 - 4;3;1;3;2 4;1 4;477.333
6;2018-03-02;08:48:22.947000;type1;testing;test;1 2 - 1 4 - 2 4 - 1 4 - 4;3;1;4;1 4;4;427.194
6;2018-03-02;08:48:22.947000;type1;testing;test;1 2 - 1 4 - 2 4 - 1 4 - 4;4;1;0;0;1 2;578.611
6;2018-03-02;08:48:22.947000;type1;testing;test;1 2 - 1 4 - 2 4 - 1 4 - 4;4;1;1;1 2;1 4;589.607
6;2018-03-02;08:48:22.947000;type1;testing;test;1 2 - 1 4 - 2 4 - 1 4 - 4;4;1;2;1 4;2 4;783.011
6;2018-03-02;08:48:22.947000;type1;testing;test;1 2 - 1 4 - 2 4 - 1 4 - 4;4;1;3;2 4;1 4;530.257
6;2018-03-02;08:48:22.947000;type1;testing;test;1 2 - 1 4 - 2 4 - 1 4 - 4;4;1;4;1 4;4;379.391
6;2018-03-02;08:48:22.947000;type1;testing;test;1 2 - 1 4 - 2 4 - 1 4 - 4;5;2;0;0;1 2;957.091
6;2018-03-02;08:48:22.947000;type1;testing;test;1 2 - 1 4 - 2 4 - 1 4 - 4;5;2;1;1 2;1 4;539.835
6;2018-03-02;08:48:22.947000;type1;testing;test;1 2 - 1 4 - 2 4 - 1 4 - 4;5;2;2;1 4;2 4;869.551
6;2018-03-02;08:48:22.947000;type1;testing;test;1 2 - 1 4 - 2 4 - 1 4 - 4;5;2;3;2 4;1 4;426.361
6;2018-03-02;08:48:22.947000;type1;testing;test;1 2 - 1 4 - 2 4 - 1 4 - 4;5;2;4;1 4;4;422.300
6;2018-03-02;08:48:22.947000;type1;testing;test;1 2 - 1 4 - 2 4 - 1 4 - 4;6;3;0;0;1 2;986.241
6;2018-03-02;08:48:22.947000;type1;testing;test;1 2 - 1 4 - 2 4 - 1 4 - 4;6;3;1;1 2;1 4;501.409
6;2018-03-02;08:48:22.947000;type1;testing;test;1 2 - 1 4 - 2 4 - 1 4 - 4;6;3;2;1 4;2 4;789.483
6;2018-03-02;08:48:22.947000;type1;testing;test;1 2 - 1 4 - 2 4 - 1 4 - 4;6;3;3;2 4;1 4;894.941
6;2018-03-02;08:48:22.947000;type1;testing;test;1 2 - 1 4 - 2 4 - 1 4 - 4;6;3;4;1 4;4;400.322
6;2018-03-02;08:48:22.947000;type1;testing;test;1 2 - 1 4 - 2 4 - 1 4 - 4;7;4;0;0;1 2;813.234
6;2018-03-02;08:48:22.947000;type1;testing;test;1 2 - 1 4 - 2 4 - 1 4 - 4;7;4;1;1 2;1 4;515.346
6;2018-03-02;08:48:22.947000;type1;testing;test;1 2 - 1 4 - 2 4 - 1 4 - 4;7;4;2;1 4;2 4;538.922
6;2018-03-02;08:48:22.947000;type1;testing;test;1 2 - 1 4 - 2 4 - 1 4 - 4;7;4;3;2 4;1 4;474.862
6;2018-03-02;08:48:22.947000;type1;testing;test;1 2 - 1 4 - 2 4 - 1 4 - 4;7;4;4;1 4;4;368.520
6;2018-03-02;08:48:22.947000;type1;testing;test;1 2 - 1 4 - 2 4 - 1 4 - 4;8;5;0;0;1 2;524.447
6;2018-03-02;08:48:22.947000;type1;testing;test;1 2 - 1 4 - 2 4 - 1 4 - 4;8;5;1;1 2;1 4;484.767
6;2018-03-02;08:48:22.947000;type1;testing;test;1 2 - 1 4 - 2 4 - 1 4 - 4;8;5;2;1 4;2 4;590.927
6;2018-03-02;08:48:22.947000;type1;testing;test;1 2 - 1 4 - 2 4 - 1 4 - 4;8;5;3;2 4;1 4;587.221
6;2018-03-02;08:48:22.947000;type1;testing;test;1 2 - 1 4 - 2 4 - 1 4 - 4;8;5;4;1 4;4;516.853
6;2018-03-02;08:48:22.947000;type1;testing;test;1 2 - 1 4 - 3 4 - 3 - 2;1;1;0;0;1;1615.214
6;2018-03-02;08:48:22.947000;type1;testing;test;1 2 - 1 4 - 3 4 - 3 - 2;1;1;1;1;2;9.610
6;2018-03-02;08:48:22.947000;type1;testing;test;1 2 - 1 4 - 3 4 - 3 - 2;1;1;2;2;1 4;510.656
6;2018-03-02;08:48:22.947000;type1;testing;test;1 2 - 1 4 - 3 4 - 3 - 2;1;1;3;1 4;1;1152.188
6;2018-03-02;08:48:22.947000;type1;testing;test;1 2 - 1 4 - 3 4 - 3 - 2;1;1;4;1;3;12.052
6;2018-03-02;08:48:22.947000;type1;testing;test;1 2 - 1 4 - 3 4 - 3 - 2;2;1;0;0;1 2;1484.685
6;2018-03-02;08:48:22.947000;type1;testing;test;1 2 - 1 4 - 3 4 - 3 - 2;2;1;1;1 2;1;483.511
6;2018-03-02;08:48:22.947000;type1;testing;test;1 2 - 1 4 - 3 4 - 3 - 2;2;1;2;1;4;11.438
6;2018-03-02;08:48:22.947000;type1;testing;test;1 2 - 1 4 - 3 4 - 3 - 2;2;1;3;4;2;1107.695
6;2018-03-02;08:48:22.947000;type1;testing;test;1 2 - 1 4 - 3 4 - 3 - 2;2;1;4;2;4;8.963
6;2018-03-02;08:48:22.947000;type1;testing;test;1 2 - 1 4 - 3 4 - 3 - 2;3;1;0;0;1;2266.159
6;2018-03-02;08:48:22.947000;type1;testing;test;1 2 - 1 4 - 3 4 - 3 - 2;3;1;1;1;2;13.978
6;2018-03-02;08:48:22.947000;type1;testing;test;1 2 - 1 4 - 3 4 - 3 - 2;3;1;2;2;4;879.151
6;2018-03-02;08:48:22.947000;type1;testing;test;1 2 - 1 4 - 3 4 - 3 - 2;3;1;3;4;1;9.653
6;2018-03-02;08:48:22.947000;type1;testing;test;1 2 - 1 4 - 3 4 - 3 - 2;4;1;0;0;1 2;1730.632
6;2018-03-02;08:48:22.947000;type1;testing;test;1 2 - 1 4 - 3 4 - 3 - 2;4;1;1;1 2;1 4;540.812
6;2018-03-02;08:48:22.947000;type1;testing;test;1 2 - 1 4 - 3 4 - 3 - 2;4;1;2;1 4;4;991.818
6;2018-03-02;08:48:22.947000;type1;testing;test;1 2 - 1 4 - 3 4 - 3 - 2;4;1;3;4;3;16.446
6;2018-03-02;08:48:22.947000;type1;testing;test;1 2 - 1 4 - 3 4 - 3 - 2;4;1;4;3;3;520.385
6;2018-03-02;08:48:22.947000;type1;testing;test;1 2 - 1 4 - 3 4 - 3 - 2;5;1;0;0;1 2;1404.652
6;2018-03-02;08:48:22.947000;type1;testing;test;1 2 - 1 4 - 3 4 - 3 - 2;5;1;1;1 2;1;697.501
6;2018-03-02;08:48:22.947000;type1;testing;test;1 2 - 1 4 - 3 4 - 3 - 2;5;1;2;1;4;23.000
6;2018-03-02;08:48:22.947000;type1;testing;test;1 2 - 1 4 - 3 4 - 3 - 2;5;1;3;4;3 4;854.589
6;2018-03-02;08:48:22.947000;type1;testing;test;1 2 - 1 4 - 3 4 - 3 - 2;5;1;4;3 4;3;874.829
6;2018-03-02;08:48:22.947000;type1;testing;test;1 2 - 1 4 - 3 4 - 3 - 2;6;1;0;0;1 2;1272.044
6;2018-03-02;08:48:22.947000;type1;testing;test;1 2 - 1 4 - 3 4 - 3 - 2;6;1;1;1 2;1 4;544.348
6;2018-03-02;08:48:22.947000;type1;testing;test;1 2 - 1 4 - 3 4 - 3 - 2;6;1;2;1 4;3 4;619.441
6;2018-03-02;08:48:22.947000;type1;testing;test;1 2 - 1 4 - 3 4 - 3 - 2;6;1;3;3 4;3;540.057
6;2018-03-02;08:48:22.947000;type1;testing;test;1 2 - 1 4 - 3 4 - 3 - 2;6;1;4;3;2;495.545
6;2018-03-02;08:48:22.947000;type1;testing;test;1 2 - 1 4 - 3 4 - 3 - 2;7;2;0;0;1 2;1572.298
6;2018-03-02;08:48:22.947000;type1;testing;test;1 2 - 1 4 - 3 4 - 3 - 2;7;2;1;1 2;1;578.891
6;2018-03-02;08:48:22.947000;type1;testing;test;1 2 - 1 4 - 3 4 - 3 - 2;7;2;2;1;4;16.359
6;2018-03-02;08:48:22.947000;type1;testing;test;1 2 - 1 4 - 3 4 - 3 - 2;7;2;3;4;3 4;714.664
6;2018-03-02;08:48:22.947000;type1;testing;test;1 2 - 1 4 - 3 4 - 3 - 2;7;2;4;3 4;3;856.608
6;2018-03-02;08:48:22.947000;type1;testing;test;1 2 - 1 4 - 3 4 - 3 - 2;8;2;0;0;1 2;844.264
6;2018-03-02;08:48:22.947000;type1;testing;test;1 2 - 1 4 - 3 4 - 3 - 2;8;2;1;1 2;1 4;533.352
6;2018-03-02;08:48:22.947000;type1;testing;test;1 2 - 1 4 - 3 4 - 3 - 2;8;2;2;1 4;3 4;752.243
6;2018-03-02;08:48:22.947000;type1;testing;test;1 2 - 1 4 - 3 4 - 3 - 2;8;2;3;3 4;3;731.215
6;2018-03-02;08:48:22.947000;type1;testing;test;1 2 - 1 4 - 3 4 - 3 - 2;8;2;4;3;2;208.434
6;2018-03-02;08:48:22.947000;type1;testing;test;1 2 - 1 4 - 3 4 - 3 - 2;9;3;0;0;1 2;1325.535
6;2018-03-02;08:48:22.947000;type1;testing;test;1 2 - 1 4 - 3 4 - 3 - 2;9;3;1;1 2;1 4;510.561
6;2018-03-02;08:48:22.947000;type1;testing;test;1 2 - 1 4 - 3 4 - 3 - 2;9;3;2;1 4;3 4;944.634
6;2018-03-02;08:48:22.947000;type1;testing;test;1 2 - 1 4 - 3 4 - 3 - 2;9;3;3;3 4;3;430.914
6;2018-03-02;08:48:22.947000;type1;testing;test;1 2 - 1 4 - 3 4 - 3 - 2;9;3;4;3;2;342.193
6;2018-03-02;08:48:22.947000;type1;testing;test;1 2 - 1 4 - 3 4 - 3 - 2;10;4;0;0;1 2;790.598
6;2018-03-02;08:48:22.947000;type1;testing;test;1 2 - 1 4 - 3 4 - 3 - 2;10;4;1;1 2;1 4;518.287
6;2018-03-02;08:48:22.947000;type1;testing;test;1 2 - 1 4 - 3 4 - 3 - 2;10;4;2;1 4;3 4;713.160
6;2018-03-02;08:48:22.947000;type1;testing;test;1 2 - 1 4 - 3 4 - 3 - 2;10;4;3;3 4;3;489.585
6;2018-03-02;08:48:22.947000;type1;testing;test;1 2 - 1 4 - 3 4 - 3 - 2;10;4;4;3;2;297.826
6;2018-03-02;08:48:22.947000;type1;testing;test;1 2 - 1 4 - 3 4 - 3 - 2;11;5;0;0;1 2;961.514
6;2018-03-02;08:48:22.947000;type1;testing;test;1 2 - 1 4 - 3 4 - 3 - 2;11;5;1;1 2;1 4;540.497
6;2018-03-02;08:48:22.947000;type1;testing;test;1 2 - 1 4 - 3 4 - 3 - 2;11;5;2;1 4;3 4;419.320
6;2018-03-02;08:48:22.947000;type1;testing;test;1 2 - 1 4 - 3 4 - 3 - 2;11;5;3;3 4;3;429.437
6;2018-03-02;08:48:22.947000;type1;testing;test;1 2 - 1 4 - 3 4 - 3 - 2;11;5;4;3;2;537.214
6;2018-03-02;08:48:22.947000;type1;testing;test;3 4 - 1 - 2 3 - 1 3 - 1 4;1;1;0;0;4;2322.550
6;2018-03-02;08:48:22.947000;type1;testing;test;3 4 - 1 - 2 3 - 1 3 - 1 4;1;1;1;4;3;9.130
6;2018-03-02;08:48:22.947000;type1;testing;test;3 4 - 1 - 2 3 - 1 3 - 1 4;1;1;2;3;1;564.161
6;2018-03-02;08:48:22.947000;type1;testing;test;3 4 - 1 - 2 3 - 1 3 - 1 4;1;1;3;1;3;877.697
6;2018-03-02;08:48:22.947000;type1;testing;test;3 4 - 1 - 2 3 - 1 3 - 1 4;1;1;4;3;2;12.828
6;2018-03-02;08:48:22.947000;type1;testing;test;3 4 - 1 - 2 3 - 1 3 - 1 4;2;1;0;0;3 4;1158.435
6;2018-03-02;08:48:22.947000;type1;testing;test;3 4 - 1 - 2 3 - 1 3 - 1 4;2;1;1;3 4;1;752.716
6;2018-03-02;08:48:22.947000;type1;testing;test;3 4 - 1 - 2 3 - 1 3 - 1 4;2;1;2;1;2 3;824.010
6;2018-03-02;08:48:22.947000;type1;testing;test;3 4 - 1 - 2 3 - 1 3 - 1 4;2;1;3;2 3;1 3;745.709
6;2018-03-02;08:48:22.947000;type1;testing;test;3 4 - 1 - 2 3 - 1 3 - 1 4;2;1;4;1 3;2 4;425.459
6;2018-03-02;08:48:22.947000;type1;testing;test;3 4 - 1 - 2 3 - 1 3 - 1 4;3;1;0;0;3 4;1505.092
6;2018-03-02;08:48:22.947000;type1;testing;test;3 4 - 1 - 2 3 - 1 3 - 1 4;3;1;1;3 4;1;655.390
6;2018-03-02;08:48:22.947000;type1;testing;test;3 4 - 1 - 2 3 - 1 3 - 1 4;3;1;2;1;2 3;526.210
6;2018-03-02;08:48:22.947000;type1;testing;test;3 4 - 1 - 2 3 - 1 3 - 1 4;3;1;3;2 3;1 3;611.825
6;2018-03-02;08:48:22.947000;type1;testing;test;3 4 - 1 - 2 3 - 1 3 - 1 4;3;1;4;1 3;1 4;493.515
6;2018-03-02;08:48:22.947000;type1;testing;test;3 4 - 1 - 2 3 - 1 3 - 1 4;4;2;0;0;3 4;1283.322
6;2018-03-02;08:48:22.947000;type1;testing;test;3 4 - 1 - 2 3 - 1 3 - 1 4;4;2;1;3 4;1;607.853
6;2018-03-02;08:48:22.947000;type1;testing;test;3 4 - 1 - 2 3 - 1 3 - 1 4;4;2;2;1;2 3;571.455
6;2018-03-02;08:48:22.947000;type1;testing;test;3 4 - 1 - 2 3 - 1 3 - 1 4;4;2;3;2 3;1 3;930.204
6;2018-03-02;08:48:22.947000;type1;testing;test;3 4 - 1 - 2 3 - 1 3 - 1 4;4;2;4;1 3;1 4;392.299
6;2018-03-02;08:48:22.947000;type1;testing;test;3 4 - 1 - 2 3 - 1 3 - 1 4;5;3;0;0;3 4;1224.251
6;2018-03-02;08:48:22.947000;type1;testing;test;3 4 - 1 - 2 3 - 1 3 - 1 4;5;3;1;3 4;1;590.515
6;2018-03-02;08:48:22.947000;type1;testing;test;3 4 - 1 - 2 3 - 1 3 - 1 4;5;3;2;1;2 3;575.584
6;2018-03-02;08:48:22.947000;type1;testing;test;3 4 - 1 - 2 3 - 1 3 - 1 4;5;3;3;2 3;1 3;775.576
6;2018-03-02;08:48:22.947000;type1;testing;test;3 4 - 1 - 2 3 - 1 3 - 1 4;5;3;4;1 3;1 4;444.479
6;2018-03-02;08:48:22.947000;type1;testing;test;3 4 - 1 - 2 3 - 1 3 - 1 4;6;4;0;0;3 4;1494.037
6;2018-03-02;08:48:22.947000;type1;testing;test;3 4 - 1 - 2 3 - 1 3 - 1 4;6;4;1;3 4;1;534.485
6;2018-03-02;08:48:22.947000;type1;testing;test;3 4 - 1 - 2 3 - 1 3 - 1 4;6;4;2;1;2 3;506.535
6;2018-03-02;08:48:22.947000;type1;testing;test;3 4 - 1 - 2 3 - 1 3 - 1 4;6;4;3;2 3;1 3;590.316
6;2018-03-02;08:48:22.947000;type1;testing;test;3 4 - 1 - 2 3 - 1 3 - 1 4;6;4;4;1 3;1 4;462.303
6;2018-03-02;08:48:22.947000;type1;testing;test;3 4 - 1 - 2 3 - 1 3 - 1 4;7;5;0;0;3 4;1361.685
6;2018-03-02;08:48:22.947000;type1;testing;test;3 4 - 1 - 2 3 - 1 3 - 1 4;7;5;1;3 4;1;776.266
6;2018-03-02;08:48:22.947000;type1;testing;test;3 4 - 1 - 2 3 - 1 3 - 1 4;7;5;2;1;2 3;527.432
6;2018-03-02;08:48:22.947000;type1;testing;test;3 4 - 1 - 2 3 - 1 3 - 1 4;7;5;3;2 3;1 3;568.734
6;2018-03-02;08:48:22.947000;type1;testing;test;3 4 - 1 - 2 3 - 1 3 - 1 4;7;5;4;1 3;1 4;487.626
6;2018-03-02;08:48:22.947000;type1;testing;train;1 2 - 2 - 2 - 4 - 2 3;1;1;0;0;1;2163.720
6;2018-03-02;08:48:22.947000;type1;testing;train;1 2 - 2 - 2 - 4 - 2 3;1;1;1;1;2;9.821
6;2018-03-02;08:48:22.947000;type1;testing;train;1 2 - 2 - 2 - 4 - 2 3;1;1;2;2;2;631.445
6;2018-03-02;08:48:22.947000;type1;testing;train;1 2 - 2 - 2 - 4 - 2 3;1;1;3;2;2;385.673
6;2018-03-02;08:48:22.947000;type1;testing;train;1 2 - 2 - 2 - 4 - 2 3;1;1;4;2;4;492.585
6;2018-03-02;08:48:22.947000;type1;testing;train;1 2 - 2 - 2 - 4 - 2 3;2;1;0;0;1 2;934.903
6;2018-03-02;08:48:22.947000;type1;testing;train;1 2 - 2 - 2 - 4 - 2 3;2;1;1;1 2;2;357.649
6;2018-03-02;08:48:22.947000;type1;testing;train;1 2 - 2 - 2 - 4 - 2 3;2;1;2;2;2;336.559
6;2018-03-02;08:48:22.947000;type1;testing;train;1 2 - 2 - 2 - 4 - 2 3;2;1;3;2;4;320.289
6;2018-03-02;08:48:22.947000;type1;testing;train;1 2 - 2 - 2 - 4 - 2 3;2;1;4;4;2 3;279.862
6;2018-03-02;08:48:22.947000;type1;testing;train;1 2 - 2 - 2 - 4 - 2 3;3;2;0;0;1 2;870.778
6;2018-03-02;08:48:22.947000;type1;testing;train;1 2 - 2 - 2 - 4 - 2 3;3;2;1;1 2;2;283.387
6;2018-03-02;08:48:22.947000;type1;testing;train;1 2 - 2 - 2 - 4 - 2 3;3;2;2;2;2;185.247
6;2018-03-02;08:48:22.947000;type1;testing;train;1 2 - 2 - 2 - 4 - 2 3;3;2;3;2;4;225.724
6;2018-03-02;08:48:22.947000;type1;testing;train;1 2 - 2 - 2 - 4 - 2 3;3;2;4;4;2 3;187.748
6;2018-03-02;08:48:22.947000;type1;testing;train;1 2 - 2 - 2 - 4 - 2 3;4;3;0;0;1 2;540.704
6;2018-03-02;08:48:22.947000;type1;testing;train;1 2 - 2 - 2 - 4 - 2 3;4;3;1;1 2;2 2;330.441
6;2018-03-02;08:48:22.947000;type1;testing;train;1 2 - 2 - 2 - 4 - 2 3;4;3;2;2 2;2;269.852
6;2018-03-02;08:48:22.947000;type1;testing;train;1 2 - 2 - 2 - 4 - 2 3;4;3;3;2;4;226.631
6;2018-03-02;08:48:22.947000;type1;testing;train;1 2 - 2 - 2 - 4 - 2 3;4;3;4;4;2 3;194.262
6;2018-03-02;08:48:22.947000;type1;testing;train;1 2 - 2 - 2 - 4 - 2 3;5;3;0;0;1 2;801.786
6;2018-03-02;08:48:22.947000;type1;testing;train;1 2 - 2 - 2 - 4 - 2 3;5;3;1;1 2;2;275.409
6;2018-03-02;08:48:22.947000;type1;testing;train;1 2 - 2 - 2 - 4 - 2 3;5;3;2;2;2;150.591
6;2018-03-02;08:48:22.947000;type1;testing;train;1 2 - 2 - 2 - 4 - 2 3;5;3;3;2;4;178.584
6;2018-03-02;08:48:22.947000;type1;testing;train;1 2 - 2 - 2 - 4 - 2 3;5;3;4;4;2 3;194.001
6;2018-03-02;08:48:22.947000;type1;testing;train;1 2 - 2 - 2 - 4 - 2 3;6;4;0;0;1 2;619.942
6;2018-03-02;08:48:22.947000;type1;testing;train;1 2 - 2 - 2 - 4 - 2 3;6;4;1;1 2;2 2;248.007
6;2018-03-02;08:48:22.947000;type1;testing;train;1 2 - 2 - 2 - 4 - 2 3;6;4;2;2 2;2;194.629
6;2018-03-02;08:48:22.947000;type1;testing;train;1 2 - 2 - 2 - 4 - 2 3;6;4;3;2;4;190.760
6;2018-03-02;08:48:22.947000;type1;testing;train;1 2 - 2 - 2 - 4 - 2 3;6;4;4;4;2 3;166.229
6;2018-03-02;08:48:22.947000;type1;testing;train;1 2 - 2 - 2 - 4 - 2 3;7;4;0;0;1 2;605.846
6;2018-03-02;08:48:22.947000;type1;testing;train;1 2 - 2 - 2 - 4 - 2 3;7;4;1;1 2;2;230.821
6;2018-03-02;08:48:22.947000;type1;testing;train;1 2 - 2 - 2 - 4 - 2 3;7;4;2;2;2;147.356
6;2018-03-02;08:48:22.947000;type1;testing;train;1 2 - 2 - 2 - 4 - 2 3;7;4;3;2;4;205.067
6;2018-03-02;08:48:22.947000;type1;testing;train;1 2 - 2 - 2 - 4 - 2 3;7;4;4;4;2 3;188.842
6;2018-03-02;08:48:22.947000;type1;testing;train;1 2 - 2 - 2 - 4 - 2 3;8;5;0;0;1 2;1901.213
6;2018-03-02;08:48:22.947000;type1;testing;train;1 2 - 2 - 2 - 4 - 2 3;8;5;1;1 2;2;263.450
6;2018-03-02;08:48:22.947000;type1;testing;train;1 2 - 2 - 2 - 4 - 2 3;8;5;2;2;2;142.894
6;2018-03-02;08:48:22.947000;type1;testing;train;1 2 - 2 - 2 - 4 - 2 3;8;5;3;2;4;236.231
6;2018-03-02;08:48:22.947000;type1;testing;train;1 2 - 2 - 2 - 4 - 2 3;8;5;4;4;2 3;190.358
6;2018-03-02;08:48:22.947000;type1;testing;train;2 - 1 4 - 2 - 1 - 1 4;1;1;0;0;2;1914.186
6;2018-03-02;08:48:22.947000;type1;testing;train;2 - 1 4 - 2 - 1 - 1 4;1;1;1;2;1 4;238.647
6;2018-03-02;08:48:22.947000;type1;testing;train;2 - 1 4 - 2 - 1 - 1 4;1;1;2;1 4;2;293.041
6;2018-03-02;08:48:22.947000;type1;testing;train;2 - 1 4 - 2 - 1 - 1 4;1;1;3;2;1;350.781
6;2018-03-02;08:48:22.947000;type1;testing;train;2 - 1 4 - 2 - 1 - 1 4;1;1;4;1;1 4;269.141
6;2018-03-02;08:48:22.947000;type1;testing;train;2 - 1 4 - 2 - 1 - 1 4;2;2;0;0;2;818.437
6;2018-03-02;08:48:22.947000;type1;testing;train;2 - 1 4 - 2 - 1 - 1 4;2;2;1;2;1 4;204.022
6;2018-03-02;08:48:22.947000;type1;testing;train;2 - 1 4 - 2 - 1 - 1 4;2;2;2;1 4;2;257.550
6;2018-03-02;08:48:22.947000;type1;testing;train;2 - 1 4 - 2 - 1 - 1 4;2;2;3;2;1;240.858
6;2018-03-02;08:48:22.947000;type1;testing;train;2 - 1 4 - 2 - 1 - 1 4;2;2;4;1;1 4;189.272
6;2018-03-02;08:48:22.947000;type1;testing;train;2 - 1 4 - 2 - 1 - 1 4;3;3;0;0;2;620.554
6;2018-03-02;08:48:22.947000;type1;testing;train;2 - 1 4 - 2 - 1 - 1 4;3;3;1;2;1 4;209.191
6;2018-03-02;08:48:22.947000;type1;testing;train;2 - 1 4 - 2 - 1 - 1 4;3;3;2;1 4;2;232.590
6;2018-03-02;08:48:22.947000;type1;testing;train;2 - 1 4 - 2 - 1 - 1 4;3;3;3;2;1 2;277.877
6;2018-03-02;08:48:22.947000;type1;testing;train;2 - 1 4 - 2 - 1 - 1 4;3;3;4;1 2;1 4;369.311
6;2018-03-02;08:48:22.947000;type1;testing;train;2 - 1 4 - 2 - 1 - 1 4;4;3;0;0;2;568.814
6;2018-03-02;08:48:22.947000;type1;testing;train;2 - 1 4 - 2 - 1 - 1 4;4;3;1;2;1 4;220.269
6;2018-03-02;08:48:22.947000;type1;testing;train;2 - 1 4 - 2 - 1 - 1 4;4;3;2;1 4;2;231.841
6;2018-03-02;08:48:22.947000;type1;testing;train;2 - 1 4 - 2 - 1 - 1 4;4;3;3;2;1;209.529
6;2018-03-02;08:48:22.947000;type1;testing;train;2 - 1 4 - 2 - 1 - 1 4;4;3;4;1;1 4;181.419
6;2018-03-02;08:48:22.947000;type1;testing;train;2 - 1 4 - 2 - 1 - 1 4;5;4;0;0;2;773.495
6;2018-03-02;08:48:22.947000;type1;testing;train;2 - 1 4 - 2 - 1 - 1 4;5;4;1;2;1 4;197.030
6;2018-03-02;08:48:22.947000;type1;testing;train;2 - 1 4 - 2 - 1 - 1 4;5;4;2;1 4;2;222.186
6;2018-03-02;08:48:22.947000;type1;testing;train;2 - 1 4 - 2 - 1 - 1 4;5;4;3;2;1;209.728
6;2018-03-02;08:48:22.947000;type1;testing;train;2 - 1 4 - 2 - 1 - 1 4;5;4;4;1;1 4;203.647
6;2018-03-02;08:48:22.947000;type1;testing;train;2 - 1 4 - 2 - 1 - 1 4;6;5;0;0;2;661.519
6;2018-03-02;08:48:22.947000;type1;testing;train;2 - 1 4 - 2 - 1 - 1 4;6;5;1;2;1 4;187.923
6;2018-03-02;08:48:22.947000;type1;testing;train;2 - 1 4 - 2 - 1 - 1 4;6;5;2;1 4;2;187.877
6;2018-03-02;08:48:22.947000;type1;testing;train;2 - 1 4 - 2 - 1 - 1 4;6;5;3;2;1 2;250.374
6;2018-03-02;08:48:22.947000;type1;testing;train;2 - 1 4 - 2 - 1 - 1 4;6;5;4;1 2;1 4;287.908
6;2018-03-02;08:48:22.947000;type1;testing;train;2 - 1 4 - 2 - 1 - 1 4;7;5;0;0;2;584.011
6;2018-03-02;08:48:22.947000;type1;testing;train;2 - 1 4 - 2 - 1 - 1 4;7;5;1;2;1 4;202.268
6;2018-03-02;08:48:22.947000;type1;testing;train;2 - 1 4 - 2 - 1 - 1 4;7;5;2;1 4;2;266.203
6;2018-03-02;08:48:22.947000;type1;testing;train;2 - 1 4 - 2 - 1 - 1 4;7;5;3;2;1;201.755
6;2018-03-02;08:48:22.947000;type1;testing;train;2 - 1 4 - 2 - 1 - 1 4;7;5;4;1;1 4;181.334
6;2018-03-02;08:48:22.947000;type1;testing;train;2 - 4 - 4 - 2 3 - 1 4;1;1;0;0;2;2300.282
6;2018-03-02;08:48:22.947000;type1;testing;train;2 - 4 - 4 - 2 3 - 1 4;1;1;1;2;4;215.825
6;2018-03-02;08:48:22.947000;type1;testing;train;2 - 4 - 4 - 2 3 - 1 4;1;1;2;4;4;129.365
6;2018-03-02;08:48:22.947000;type1;testing;train;2 - 4 - 4 - 2 3 - 1 4;1;1;3;4;2 3;224.686
6;2018-03-02;08:48:22.947000;type1;testing;train;2 - 4 - 4 - 2 3 - 1 4;1;1;4;2 3;1 4;222.443
6;2018-03-02;08:48:22.947000;type1;testing;train;2 - 4 - 4 - 2 3 - 1 4;2;2;0;0;2;767.140
6;2018-03-02;08:48:22.947000;type1;testing;train;2 - 4 - 4 - 2 3 - 1 4;2;2;1;2;4 4;273.374
6;2018-03-02;08:48:22.947000;type1;testing;train;2 - 4 - 4 - 2 3 - 1 4;2;2;2;4 4;3;284.876
6;2018-03-02;08:48:22.947000;type1;testing;train;2 - 4 - 4 - 2 3 - 1 4;2;2;3;3;2;244.686
6;2018-03-02;08:48:22.947000;type1;testing;train;2 - 4 - 4 - 2 3 - 1 4;2;2;4;2;1 4;152.966
6;2018-03-02;08:48:22.947000;type1;testing;train;2 - 4 - 4 - 2 3 - 1 4;3;2;0;0;2;684.478
6;2018-03-02;08:48:22.947000;type1;testing;train;2 - 4 - 4 - 2 3 - 1 4;3;2;1;2;4;226.510
6;2018-03-02;08:48:22.947000;type1;testing;train;2 - 4 - 4 - 2 3 - 1 4;3;2;2;4;4;168.377
6;2018-03-02;08:48:22.947000;type1;testing;train;2 - 4 - 4 - 2 3 - 1 4;3;2;3;4;2 3;231.552
6;2018-03-02;08:48:22.947000;type1;testing;train;2 - 4 - 4 - 2 3 - 1 4;3;2;4;2 3;1 4;178.790
6;2018-03-02;08:48:22.947000;type1;testing;train;2 - 4 - 4 - 2 3 - 1 4;4;3;0;0;2;732.253
6;2018-03-02;08:48:22.947000;type1;testing;train;2 - 4 - 4 - 2 3 - 1 4;4;3;1;2;4;241.963
6;2018-03-02;08:48:22.947000;type1;testing;train;2 - 4 - 4 - 2 3 - 1 4;4;3;2;4;4;133.393
6;2018-03-02;08:48:22.947000;type1;testing;train;2 - 4 - 4 - 2 3 - 1 4;4;3;3;4;2 3;260.957
6;2018-03-02;08:48:22.947000;type1;testing;train;2 - 4 - 4 - 2 3 - 1 4;4;3;4;2 3;1 4;200.342
6;2018-03-02;08:48:22.947000;type1;testing;train;2 - 4 - 4 - 2 3 - 1 4;5;4;0;0;2;519.202
6;2018-03-02;08:48:22.947000;type1;testing;train;2 - 4 - 4 - 2 3 - 1 4;5;4;1;2;4;191.461
6;2018-03-02;08:48:22.947000;type1;testing;train;2 - 4 - 4 - 2 3 - 1 4;5;4;2;4;4;139.436
6;2018-03-02;08:48:22.947000;type1;testing;train;2 - 4 - 4 - 2 3 - 1 4;5;4;3;4;2 3;300.995
6;2018-03-02;08:48:22.947000;type1;testing;train;2 - 4 - 4 - 2 3 - 1 4;5;4;4;2 3;1 4;199.677
6;2018-03-02;08:48:22.947000;type1;testing;train;2 - 4 - 4 - 2 3 - 1 4;6;5;0;0;2;1078.953
6;2018-03-02;08:48:22.947000;type1;testing;train;2 - 4 - 4 - 2 3 - 1 4;6;5;1;2;4;192.458
6;2018-03-02;08:48:22.947000;type1;testing;train;2 - 4 - 4 - 2 3 - 1 4;6;5;2;4;4;123.583
6;2018-03-02;08:48:22.947000;type1;testing;train;2 - 4 - 4 - 2 3 - 1 4;6;5;3;4;2 3;225.040
6;2018-03-02;08:48:22.947000;type1;testing;train;2 - 4 - 4 - 2 3 - 1 4;6;5;4;2 3;1 4;196.375
6;2018-03-02;08:48:22.947000;type1;testing;train;3 4 - 1 3 - 3 4 - 2 - 2;1;1;0;0;3 4;1844.652
6;2018-03-02;08:48:22.947000;type1;testing;train;3 4 - 1 3 - 3 4 - 2 - 2;1;1;1;3 4;1 3;1100.873
6;2018-03-02;08:48:22.947000;type1;testing;train;3 4 - 1 3 - 3 4 - 2 - 2;1;1;2;1 3;3 4;357.134
6;2018-03-02;08:48:22.947000;type1;testing;train;3 4 - 1 3 - 3 4 - 2 - 2;1;1;3;3 4;2;321.543
6;2018-03-02;08:48:22.947000;type1;testing;train;3 4 - 1 3 - 3 4 - 2 - 2;1;1;4;2;3;363.679
6;2018-03-02;08:48:22.947000;type1;testing;train;3 4 - 1 3 - 3 4 - 2 - 2;2;1;0;0;3 4;1556.560
6;2018-03-02;08:48:22.947000;type1;testing;train;3 4 - 1 3 - 3 4 - 2 - 2;2;1;1;3 4;1 3;663.481
6;2018-03-02;08:48:22.947000;type1;testing;train;3 4 - 1 3 - 3 4 - 2 - 2;2;1;2;1 3;3 4;396.145
6;2018-03-02;08:48:22.947000;type1;testing;train;3 4 - 1 3 - 3 4 - 2 - 2;2;1;3;3 4;2;264.933
6;2018-03-02;08:48:22.947000;type1;testing;train;3 4 - 1 3 - 3 4 - 2 - 2;2;1;4;2;2;190.279
6;2018-03-02;08:48:22.947000;type1;testing;train;3 4 - 1 3 - 3 4 - 2 - 2;3;2;0;0;3 4;398.713
6;2018-03-02;08:48:22.947000;type1;testing;train;3 4 - 1 3 - 3 4 - 2 - 2;3;2;1;3 4;1 3;309.427
6;2018-03-02;08:48:22.947000;type1;testing;train;3 4 - 1 3 - 3 4 - 2 - 2;3;2;2;1 3;3 4;318.059
6;2018-03-02;08:48:22.947000;type1;testing;train;3 4 - 1 3 - 3 4 - 2 - 2;3;2;3;3 4;2 2 3;419.274
6;2018-03-02;08:48:22.947000;type1;testing;train;3 4 - 1 3 - 3 4 - 2 - 2;3;2;4;2 2 3;2;449.136
6;2018-03-02;08:48:22.947000;type1;testing;train;3 4 - 1 3 - 3 4 - 2 - 2;4;2;0;0;3 4;804.583
6;2018-03-02;08:48:22.947000;type1;testing;train;3 4 - 1 3 - 3 4 - 2 - 2;4;2;1;3 4;1 3;237.565
6;2018-03-02;08:48:22.947000;type1;testing;train;3 4 - 1 3 - 3 4 - 2 - 2;4;2;2;1 3;3 4;259.027
6;2018-03-02;08:48:22.947000;type1;testing;train;3 4 - 1 3 - 3 4 - 2 - 2;4;2;3;3 4;2;221.956
6;2018-03-02;08:48:22.947000;type1;testing;train;3 4 - 1 3 - 3 4 - 2 - 2;4;2;4;2;2;211.455
6;2018-03-02;08:48:22.947000;type1;testing;train;3 4 - 1 3 - 3 4 - 2 - 2;5;3;0;0;3 4;797.114
6;2018-03-02;08:48:22.947000;type1;testing;train;3 4 - 1 3 - 3 4 - 2 - 2;5;3;1;3 4;1 3;237.202
6;2018-03-02;08:48:22.947000;type1;testing;train;3 4 - 1 3 - 3 4 - 2 - 2;5;3;2;1 3;3 4;351.572
6;2018-03-02;08:48:22.947000;type1;testing;train;3 4 - 1 3 - 3 4 - 2 - 2;5;3;3;3 4;2;297.588
6;2018-03-02;08:48:22.947000;type1;testing;train;3 4 - 1 3 - 3 4 - 2 - 2;5;3;4;2;2;193.519
6;2018-03-02;08:48:22.947000;type1;testing;train;3 4 - 1 3 - 3 4 - 2 - 2;6;4;0;0;3 4;798.378
6;2018-03-02;08:48:22.947000;type1;testing;train;3 4 - 1 3 - 3 4 - 2 - 2;6;4;1;3 4;1 3;281.421
6;2018-03-02;08:48:22.947000;type1;testing;train;3 4 - 1 3 - 3 4 - 2 - 2;6;4;2;1 3;3 4;321.499
6;2018-03-02;08:48:22.947000;type1;testing;train;3 4 - 1 3 - 3 4 - 2 - 2;6;4;3;3 4;2;345.943
6;2018-03-02;08:48:22.947000;type1;testing;train;3 4 - 1 3 - 3 4 - 2 - 2;6;4;4;2;2;187.852
6;2018-03-02;08:48:22.947000;type1;testing;train;3 4 - 1 3 - 3 4 - 2 - 2;7;5;0;0;3 4;632.269
6;2018-03-02;08:48:22.947000;type1;testing;train;3 4 - 1 3 - 3 4 - 2 - 2;7;5;1;3 4;1 3;218.553
6;2018-03-02;08:48:22.947000;type1;testing;train;3 4 - 1 3 - 3 4 - 2 - 2;7;5;2;1 3;3 4;274.857
6;2018-03-02;08:48:22.947000;type1;testing;train;3 4 - 1 3 - 3 4 - 2 - 2;7;5;3;3 4;2;230.584
6;2018-03-02;08:48:22.947000;type1;testing;train;3 4 - 1 3 - 3 4 - 2 - 2;7;5;4;2;2;169.672
