sess_num;sess_date;sess_time;seq_type;sess_type;seq_train;true_sequence;obs_sequence;accuracy;score;cumulative_trial;trial;trial_type;keystroke;key_from;key_to;RT
1;2018-03-04;11:02:32.381000;type1;training;train;1 3 4 - 1 - 1 2 - 1 3 - 2 3;1 1 1 2 3 4 - 1 - 3 - 2 - 3;0.2;1.3638383276;1;1;done;0;0;1 1 1 2 3 4;-198.31
1;2018-03-04;11:02:32.381000;type1;training;train;1 3 4 - 1 - 1 2 - 1 3 - 2 3;1 1 1 2 3 4 - 1 - 3 - 2 - 3;0.2;1.3638383276;1;1;done;1;1 1 1 2 3 4;1;172.937
1;2018-03-04;11:02:32.381000;type1;training;train;1 3 4 - 1 - 1 2 - 1 3 - 2 3;1 1 1 2 3 4 - 1 - 3 - 2 - 3;0.2;1.3638383276;1;1;done;2;1;3;9.164
1;2018-03-04;11:02:32.381000;type1;training;train;1 3 4 - 1 - 1 2 - 1 3 - 2 3;1 1 1 2 3 4 - 1 - 3 - 2 - 3;0.2;1.3638383276;1;1;done;3;3;2;528.047
1;2018-03-04;11:02:32.381000;type1;training;train;1 3 4 - 1 - 1 2 - 1 3 - 2 3;1 1 1 2 3 4 - 1 - 3 - 2 - 3;0.2;1.3638383276;1;1;done;4;2;3;23.077
1;2018-03-04;11:02:32.381000;type1;training;train;1 3 4 - 1 - 1 2 - 1 3 - 2 3;1 1 1 2 3 4 - 1 - 3 - 2 - 3;0.2;1.6390345352;2;1;done;0;0;1 1 1 2 3 4;-198.146
1;2018-03-04;11:02:32.381000;type1;training;train;1 3 4 - 1 - 1 2 - 1 3 - 2 3;1 1 1 2 3 4 - 1 - 3 - 2 - 3;0.2;1.6390345352;2;1;done;1;1 1 1 2 3 4;1;155.71
1;2018-03-04;11:02:32.381000;type1;training;train;1 3 4 - 1 - 1 2 - 1 3 - 2 3;1 1 1 2 3 4 - 1 - 3 - 2 - 3;0.2;1.6390345352;2;1;done;2;1;3;34.857
1;2018-03-04;11:02:32.381000;type1;training;train;1 3 4 - 1 - 1 2 - 1 3 - 2 3;1 1 1 2 3 4 - 1 - 3 - 2 - 3;0.2;1.6390345352;2;1;done;3;3;2;337.144
1;2018-03-04;11:02:32.381000;type1;training;train;1 3 4 - 1 - 1 2 - 1 3 - 2 3;1 1 1 2 3 4 - 1 - 3 - 2 - 3;0.2;1.6390345352;2;1;done;4;2;3;82.405
1;2018-03-04;11:02:32.381000;type1;training;train;1 3 4 - 1 - 1 2 - 1 3 - 2 3;4 - 1 1 - 1 2 - 1 3 - 2 3;0.6;208.1020786503;3;1;done;0;0;4;-200.049
1;2018-03-04;11:02:32.381000;type1;training;train;1 3 4 - 1 - 1 2 - 1 3 - 2 3;4 - 1 1 - 1 2 - 1 3 - 2 3;0.6;208.1020786503;3;1;done;1;4;1 1;1.576
1;2018-03-04;11:02:32.381000;type1;training;train;1 3 4 - 1 - 1 2 - 1 3 - 2 3;4 - 1 1 - 1 2 - 1 3 - 2 3;0.6;208.1020786503;3;1;done;2;1 1;1 2;1.283
1;2018-03-04;11:02:32.381000;type1;training;train;1 3 4 - 1 - 1 2 - 1 3 - 2 3;4 - 1 1 - 1 2 - 1 3 - 2 3;0.6;208.1020786503;3;1;done;3;1 2;1 3;1.032
1;2018-03-04;11:02:32.381000;type1;training;train;1 3 4 - 1 - 1 2 - 1 3 - 2 3;4 - 1 1 - 1 2 - 1 3 - 2 3;0.6;208.1020786503;3;1;done;4;1 3;2 3;0.915
1;2018-03-04;11:02:32.381000;type1;training;train;1 3 4 - 1 - 1 2 - 1 3 - 2 3;1 3 4 - 1 - 1 2 - 1 3 - 2 3;1;0.5397523778;4;2;done;0;0;1 3 4;487.752
1;2018-03-04;11:02:32.381000;type1;training;train;1 3 4 - 1 - 1 2 - 1 3 - 2 3;1 3 4 - 1 - 1 2 - 1 3 - 2 3;1;0.5397523778;4;2;done;1;1 3 4;1;429.93
1;2018-03-04;11:02:32.381000;type1;training;train;1 3 4 - 1 - 1 2 - 1 3 - 2 3;1 3 4 - 1 - 1 2 - 1 3 - 2 3;1;0.5397523778;4;2;done;2;1;1 2;430.053
1;2018-03-04;11:02:32.381000;type1;training;train;1 3 4 - 1 - 1 2 - 1 3 - 2 3;1 3 4 - 1 - 1 2 - 1 3 - 2 3;1;0.5397523778;4;2;done;3;1 2;1 3;467.351
1;2018-03-04;11:02:32.381000;type1;training;train;1 3 4 - 1 - 1 2 - 1 3 - 2 3;1 3 4 - 1 - 1 2 - 1 3 - 2 3;1;0.5397523778;4;2;done;4;1 3;2 3;525.368
1;2018-03-04;11:02:32.381000;type1;training;train;1 3 4 - 1 - 1 2 - 1 3 - 2 3;1 4 - 1 - 1 2 - 1 3 - 2 3;0.8;0.3992386881;5;2;done;0;0;1 4;753.148
1;2018-03-04;11:02:32.381000;type1;training;train;1 3 4 - 1 - 1 2 - 1 3 - 2 3;1 4 - 1 - 1 2 - 1 3 - 2 3;0.8;0.3992386881;5;2;done;1;1 4;1;545.188
1;2018-03-04;11:02:32.381000;type1;training;train;1 3 4 - 1 - 1 2 - 1 3 - 2 3;1 4 - 1 - 1 2 - 1 3 - 2 3;0.8;0.3992386881;5;2;done;2;1;1 2;520.116
1;2018-03-04;11:02:32.381000;type1;training;train;1 3 4 - 1 - 1 2 - 1 3 - 2 3;1 4 - 1 - 1 2 - 1 3 - 2 3;0.8;0.3992386881;5;2;done;3;1 2;1 3;518.932
1;2018-03-04;11:02:32.381000;type1;training;train;1 3 4 - 1 - 1 2 - 1 3 - 2 3;1 4 - 1 - 1 2 - 1 3 - 2 3;0.8;0.3992386881;5;2;done;4;1 3;2 3;920.532
1;2018-03-04;11:02:32.381000;type1;training;train;1 3 4 - 1 - 1 2 - 1 3 - 2 3;4 - 1 - 3;0.2;53.0307753638;6;2;done;0;0;4;3266.824
1;2018-03-04;11:02:32.381000;type1;training;train;1 3 4 - 1 - 1 2 - 1 3 - 2 3;4 - 1 - 3;0.2;53.0307753638;6;2;done;1;4;1;9.671
1;2018-03-04;11:02:32.381000;type1;training;train;1 3 4 - 1 - 1 2 - 1 3 - 2 3;4 - 1 - 3;0.2;53.0307753638;6;2;done;2;1;3;9.186
1;2018-03-04;11:02:32.381000;type1;training;train;1 3 4 - 1 - 1 2 - 1 3 - 2 3;4 - 1 3 - 1 - 1 - 3;0;0.5919706194;7;2;done;0;0;4;1904.007
1;2018-03-04;11:02:32.381000;type1;training;train;1 3 4 - 1 - 1 2 - 1 3 - 2 3;4 - 1 3 - 1 - 1 - 3;0;0.5919706194;7;2;done;1;4;1 3;14.363
1;2018-03-04;11:02:32.381000;type1;training;train;1 3 4 - 1 - 1 2 - 1 3 - 2 3;4 - 1 3 - 1 - 1 - 3;0;0.5919706194;7;2;done;2;1 3;1;728.288
1;2018-03-04;11:02:32.381000;type1;training;train;1 3 4 - 1 - 1 2 - 1 3 - 2 3;4 - 1 3 - 1 - 1 - 3;0;0.5919706194;7;2;done;3;1;1;923.943
1;2018-03-04;11:02:32.381000;type1;training;train;1 3 4 - 1 - 1 2 - 1 3 - 2 3;4 - 1 3 - 1 - 1 - 3;0;0.5919706194;7;2;done;4;1;3;22.679
1;2018-03-04;11:02:32.381000;type1;training;train;1 3 4 - 1 - 1 2 - 1 3 - 2 3;1 4 - 3 - 1 - 1 3 - 1 2;0.2;0.5578219186;8;2;done;0;0;1 4;2040.357
1;2018-03-04;11:02:32.381000;type1;training;train;1 3 4 - 1 - 1 2 - 1 3 - 2 3;1 4 - 3 - 1 - 1 3 - 1 2;0.2;0.5578219186;8;2;done;1;1 4;3;14.762
1;2018-03-04;11:02:32.381000;type1;training;train;1 3 4 - 1 - 1 2 - 1 3 - 2 3;1 4 - 3 - 1 - 1 3 - 1 2;0.2;0.5578219186;8;2;done;2;3;1;609.338
1;2018-03-04;11:02:32.381000;type1;training;train;1 3 4 - 1 - 1 2 - 1 3 - 2 3;1 4 - 3 - 1 - 1 3 - 1 2;0.2;0.5578219186;8;2;done;3;1;1 3;771.607
1;2018-03-04;11:02:32.381000;type1;training;train;1 3 4 - 1 - 1 2 - 1 3 - 2 3;1 4 - 3 - 1 - 1 3 - 1 2;0.2;0.5578219186;8;2;done;4;1 3;1 2;396.98
1;2018-03-04;11:02:32.381000;type1;training;train;1 3 4 - 1 - 1 2 - 1 3 - 2 3;1 3 4 - 1 - 1 3 - 1 2 - 2 3;0.6;0.4448253087;9;2;done;0;0;1 3 4;1578.135
1;2018-03-04;11:02:32.381000;type1;training;train;1 3 4 - 1 - 1 2 - 1 3 - 2 3;1 3 4 - 1 - 1 3 - 1 2 - 2 3;0.6;0.4448253087;9;2;done;1;1 3 4;1;755.552
1;2018-03-04;11:02:32.381000;type1;training;train;1 3 4 - 1 - 1 2 - 1 3 - 2 3;1 3 4 - 1 - 1 3 - 1 2 - 2 3;0.6;0.4448253087;9;2;done;2;1;1 3;776.305
1;2018-03-04;11:02:32.381000;type1;training;train;1 3 4 - 1 - 1 2 - 1 3 - 2 3;1 3 4 - 1 - 1 3 - 1 2 - 2 3;0.6;0.4448253087;9;2;done;3;1 3;1 2;388.412
1;2018-03-04;11:02:32.381000;type1;training;train;1 3 4 - 1 - 1 2 - 1 3 - 2 3;1 3 4 - 1 - 1 3 - 1 2 - 2 3;0.6;0.4448253087;9;2;done;4;1 2;2 3;327.804
1;2018-03-04;11:02:32.381000;type1;training;train;1 3 4 - 1 - 1 2 - 1 3 - 2 3;1 3 4 - 1 - 1 3 - 1 2 - 2 3;0.6;0.4566575579;10;2;done;0;0;1 3 4;929.204
1;2018-03-04;11:02:32.381000;type1;training;train;1 3 4 - 1 - 1 2 - 1 3 - 2 3;1 3 4 - 1 - 1 3 - 1 2 - 2 3;0.6;0.4566575579;10;2;done;1;1 3 4;1;495.578
1;2018-03-04;11:02:32.381000;type1;training;train;1 3 4 - 1 - 1 2 - 1 3 - 2 3;1 3 4 - 1 - 1 3 - 1 2 - 2 3;0.6;0.4566575579;10;2;done;2;1;1 3;618.597
1;2018-03-04;11:02:32.381000;type1;training;train;1 3 4 - 1 - 1 2 - 1 3 - 2 3;1 3 4 - 1 - 1 3 - 1 2 - 2 3;0.6;0.4566575579;10;2;done;3;1 3;1 2;492.329
1;2018-03-04;11:02:32.381000;type1;training;train;1 3 4 - 1 - 1 2 - 1 3 - 2 3;1 3 4 - 1 - 1 3 - 1 2 - 2 3;0.6;0.4566575579;10;2;done;4;1 2;2 3;583.321
1;2018-03-04;11:02:32.381000;type1;training;train;1 3 4 - 1 - 1 2 - 1 3 - 2 3;1 4 - 1 - 1 2 - 1 3 - 2 3;0.8;0.4887482449;11;2;done;0;0;1 4;1210.514
1;2018-03-04;11:02:32.381000;type1;training;train;1 3 4 - 1 - 1 2 - 1 3 - 2 3;1 4 - 1 - 1 2 - 1 3 - 2 3;0.8;0.4887482449;11;2;done;1;1 4;1;535.236
1;2018-03-04;11:02:32.381000;type1;training;train;1 3 4 - 1 - 1 2 - 1 3 - 2 3;1 4 - 1 - 1 2 - 1 3 - 2 3;0.8;0.4887482449;11;2;done;2;1;1 2;548.853
1;2018-03-04;11:02:32.381000;type1;training;train;1 3 4 - 1 - 1 2 - 1 3 - 2 3;1 4 - 1 - 1 2 - 1 3 - 2 3;0.8;0.4887482449;11;2;done;3;1 2;1 3;490.3
1;2018-03-04;11:02:32.381000;type1;training;train;1 3 4 - 1 - 1 2 - 1 3 - 2 3;1 4 - 1 - 1 2 - 1 3 - 2 3;0.8;0.4887482449;11;2;done;4;1 3;2 3;471.654
1;2018-03-04;11:02:32.381000;type1;training;train;1 3 4 - 1 - 1 2 - 1 3 - 2 3;1 3 4 - 1 - 1 2 - 1 2 3 - 2 3;0.8;0.3876184951;12;2;done;0;0;1 3 4;984.147
1;2018-03-04;11:02:32.381000;type1;training;train;1 3 4 - 1 - 1 2 - 1 3 - 2 3;1 3 4 - 1 - 1 2 - 1 2 3 - 2 3;0.8;0.3876184951;12;2;done;1;1 3 4;1;508.134
1;2018-03-04;11:02:32.381000;type1;training;train;1 3 4 - 1 - 1 2 - 1 3 - 2 3;1 3 4 - 1 - 1 2 - 1 2 3 - 2 3;0.8;0.3876184951;12;2;done;2;1;1 2;573.126
1;2018-03-04;11:02:32.381000;type1;training;train;1 3 4 - 1 - 1 2 - 1 3 - 2 3;1 3 4 - 1 - 1 2 - 1 2 3 - 2 3;0.8;0.3876184951;12;2;done;3;1 2;1 2 3;541.035
1;2018-03-04;11:02:32.381000;type1;training;train;1 3 4 - 1 - 1 2 - 1 3 - 2 3;1 3 4 - 1 - 1 2 - 1 2 3 - 2 3;0.8;0.3876184951;12;2;done;4;1 2 3;2 3;957.562
1;2018-03-04;11:02:32.381000;type1;training;train;1 3 4 - 1 - 1 2 - 1 3 - 2 3;1 1 1 2 3 4 - 1 - 3 - 3 - 2;0.2;2.1243471395;13;2;done;0;0;1 1 1 2 3 4;-198.971
1;2018-03-04;11:02:32.381000;type1;training;train;1 3 4 - 1 - 1 2 - 1 3 - 2 3;1 1 1 2 3 4 - 1 - 3 - 3 - 2;0.2;2.1243471395;13;2;done;1;1 1 1 2 3 4;1;123.093
1;2018-03-04;11:02:32.381000;type1;training;train;1 3 4 - 1 - 1 2 - 1 3 - 2 3;1 1 1 2 3 4 - 1 - 3 - 3 - 2;0.2;2.1243471395;13;2;done;2;1;3;11.449
1;2018-03-04;11:02:32.381000;type1;training;train;1 3 4 - 1 - 1 2 - 1 3 - 2 3;1 1 1 2 3 4 - 1 - 3 - 3 - 2;0.2;2.1243471395;13;2;done;3;3;3;326.508
1;2018-03-04;11:02:32.381000;type1;training;train;1 3 4 - 1 - 1 2 - 1 3 - 2 3;1 1 1 2 3 4 - 1 - 3 - 3 - 2;0.2;2.1243471395;13;2;done;4;3;2;9.683
1;2018-03-04;11:02:32.381000;type1;training;train;1 3 4 - 1 - 1 2 - 1 3 - 2 3;1 3 4 - 1 - 1 3 - 1 2 - 2 3;0.6;0.4603086009;14;2;done;0;0;1 3 4;622.153
1;2018-03-04;11:02:32.381000;type1;training;train;1 3 4 - 1 - 1 2 - 1 3 - 2 3;1 3 4 - 1 - 1 3 - 1 2 - 2 3;0.6;0.4603086009;14;2;done;1;1 3 4;1;522.453
1;2018-03-04;11:02:32.381000;type1;training;train;1 3 4 - 1 - 1 2 - 1 3 - 2 3;1 3 4 - 1 - 1 3 - 1 2 - 2 3;0.6;0.4603086009;14;2;done;2;1;1 3;541.314
1;2018-03-04;11:02:32.381000;type1;training;train;1 3 4 - 1 - 1 2 - 1 3 - 2 3;1 3 4 - 1 - 1 3 - 1 2 - 2 3;0.6;0.4603086009;14;2;done;3;1 3;1 2;625.165
1;2018-03-04;11:02:32.381000;type1;training;train;1 3 4 - 1 - 1 2 - 1 3 - 2 3;1 3 4 - 1 - 1 3 - 1 2 - 2 3;0.6;0.4603086009;14;2;done;4;1 2;2 3;483.524
1;2018-03-04;11:02:32.381000;type1;training;train;1 3 4 - 1 - 1 2 - 1 3 - 2 3;4 - 1 3 - 1 - 1 3 - 2;0.2;0.5112530421;15;2;done;0;0;4;1327.629
1;2018-03-04;11:02:32.381000;type1;training;train;1 3 4 - 1 - 1 2 - 1 3 - 2 3;4 - 1 3 - 1 - 1 3 - 2;0.2;0.5112530421;15;2;done;1;4;1 3;34.756
1;2018-03-04;11:02:32.381000;type1;training;train;1 3 4 - 1 - 1 2 - 1 3 - 2 3;4 - 1 3 - 1 - 1 3 - 2;0.2;0.5112530421;15;2;done;2;1 3;1;593.589
1;2018-03-04;11:02:32.381000;type1;training;train;1 3 4 - 1 - 1 2 - 1 3 - 2 3;4 - 1 3 - 1 - 1 3 - 2;0.2;0.5112530421;15;2;done;3;1;1 3;657.45
1;2018-03-04;11:02:32.381000;type1;training;train;1 3 4 - 1 - 1 2 - 1 3 - 2 3;4 - 1 3 - 1 - 1 3 - 2;0.2;0.5112530421;15;2;done;4;1 3;2;670.184
1;2018-03-04;11:02:32.381000;type1;training;train;1 3 4 - 1 - 1 2 - 1 3 - 2 3;1 3 4 - 1 - 1 - 2 - 1 3;0.4;0.3262133888;16;2;done;0;0;1 3 4;900.934
1;2018-03-04;11:02:32.381000;type1;training;train;1 3 4 - 1 - 1 2 - 1 3 - 2 3;1 3 4 - 1 - 1 - 2 - 1 3;0.4;0.3262133888;16;2;done;1;1 3 4;1;562.794
1;2018-03-04;11:02:32.381000;type1;training;train;1 3 4 - 1 - 1 2 - 1 3 - 2 3;1 3 4 - 1 - 1 - 2 - 1 3;0.4;0.3262133888;16;2;done;2;1;1;2092.094
1;2018-03-04;11:02:32.381000;type1;training;train;1 3 4 - 1 - 1 2 - 1 3 - 2 3;1 3 4 - 1 - 1 - 2 - 1 3;0.4;0.3262133888;16;2;done;3;1;2;36.871
1;2018-03-04;11:02:32.381000;type1;training;train;1 3 4 - 1 - 1 2 - 1 3 - 2 3;1 3 4 - 1 - 1 - 2 - 1 3;0.4;0.3262133888;16;2;done;4;2;1 3;373.72
1;2018-03-04;11:02:32.381000;type1;training;train;1 3 4 - 1 - 1 2 - 1 3 - 2 3;1 3 4 - 1 - 1 2 - 1 3 - 2 3;1;0.4586038166;17;3;done;0;0;1 3 4;1368.364
1;2018-03-04;11:02:32.381000;type1;training;train;1 3 4 - 1 - 1 2 - 1 3 - 2 3;1 3 4 - 1 - 1 2 - 1 3 - 2 3;1;0.4586038166;17;3;done;1;1 3 4;1;583.45
1;2018-03-04;11:02:32.381000;type1;training;train;1 3 4 - 1 - 1 2 - 1 3 - 2 3;1 3 4 - 1 - 1 2 - 1 3 - 2 3;1;0.4586038166;17;3;done;2;1;1 2;847.709
1;2018-03-04;11:02:32.381000;type1;training;train;1 3 4 - 1 - 1 2 - 1 3 - 2 3;1 3 4 - 1 - 1 2 - 1 3 - 2 3;1;0.4586038166;17;3;done;3;1 2;1 3;458.025
1;2018-03-04;11:02:32.381000;type1;training;train;1 3 4 - 1 - 1 2 - 1 3 - 2 3;1 3 4 - 1 - 1 2 - 1 3 - 2 3;1;0.4586038166;17;3;done;4;1 3;2 3;291.348
1;2018-03-04;11:02:32.381000;type1;training;train;1 3 4 - 1 - 1 2 - 1 3 - 2 3;1 3 4 - 1 - 1 2 - 1 3 - 2 3;1;0.4483655294;18;4;done;0;0;1 3 4;604.413
1;2018-03-04;11:02:32.381000;type1;training;train;1 3 4 - 1 - 1 2 - 1 3 - 2 3;1 3 4 - 1 - 1 2 - 1 3 - 2 3;1;0.4483655294;18;4;done;1;1 3 4;1;770.927
1;2018-03-04;11:02:32.381000;type1;training;train;1 3 4 - 1 - 1 2 - 1 3 - 2 3;1 3 4 - 1 - 1 2 - 1 3 - 2 3;1;0.4483655294;18;4;done;2;1;1 2;597.553
1;2018-03-04;11:02:32.381000;type1;training;train;1 3 4 - 1 - 1 2 - 1 3 - 2 3;1 3 4 - 1 - 1 2 - 1 3 - 2 3;1;0.4483655294;18;4;done;3;1 2;1 3;474.321
1;2018-03-04;11:02:32.381000;type1;training;train;1 3 4 - 1 - 1 2 - 1 3 - 2 3;1 3 4 - 1 - 1 2 - 1 3 - 2 3;1;0.4483655294;18;4;done;4;1 3;2 3;387.523
1;2018-03-04;11:02:32.381000;type1;training;train;1 3 4 - 1 - 1 2 - 1 3 - 2 3;1 4 - 1 - 1 2 - 1 3 - 2 3;0.8;0.667922434;19;4;done;0;0;1 4;819.944
1;2018-03-04;11:02:32.381000;type1;training;train;1 3 4 - 1 - 1 2 - 1 3 - 2 3;1 4 - 1 - 1 2 - 1 3 - 2 3;0.8;0.667922434;19;4;done;1;1 4;1;409.006
1;2018-03-04;11:02:32.381000;type1;training;train;1 3 4 - 1 - 1 2 - 1 3 - 2 3;1 4 - 1 - 1 2 - 1 3 - 2 3;0.8;0.667922434;19;4;done;2;1;1 2;394.709
1;2018-03-04;11:02:32.381000;type1;training;train;1 3 4 - 1 - 1 2 - 1 3 - 2 3;1 4 - 1 - 1 2 - 1 3 - 2 3;0.8;0.667922434;19;4;done;3;1 2;1 3;359.475
1;2018-03-04;11:02:32.381000;type1;training;train;1 3 4 - 1 - 1 2 - 1 3 - 2 3;1 4 - 1 - 1 2 - 1 3 - 2 3;0.8;0.667922434;19;4;done;4;1 3;2 3;333.991
1;2018-03-04;11:02:32.381000;type1;training;train;1 3 4 - 1 - 1 2 - 1 3 - 2 3;1 3 4 - 1 - 1 2 - 1 3 - 2 3;1;0.4754799031;20;5;done;0;0;1 3 4;1097.874
1;2018-03-04;11:02:32.381000;type1;training;train;1 3 4 - 1 - 1 2 - 1 3 - 2 3;1 3 4 - 1 - 1 2 - 1 3 - 2 3;1;0.4754799031;20;5;done;1;1 3 4;1;395.721
1;2018-03-04;11:02:32.381000;type1;training;train;1 3 4 - 1 - 1 2 - 1 3 - 2 3;1 3 4 - 1 - 1 2 - 1 3 - 2 3;1;0.4754799031;20;5;done;2;1;1 2;989.252
1;2018-03-04;11:02:32.381000;type1;training;train;1 3 4 - 1 - 1 2 - 1 3 - 2 3;1 3 4 - 1 - 1 2 - 1 3 - 2 3;1;0.4754799031;20;5;done;3;1 2;1 3;346.085
1;2018-03-04;11:02:32.381000;type1;training;train;1 3 4 - 1 - 1 2 - 1 3 - 2 3;1 3 4 - 1 - 1 2 - 1 3 - 2 3;1;0.4754799031;20;5;done;4;1 3;2 3;372.08
1;2018-03-04;11:02:32.381000;type1;training;train;1 3 4 - 1 - 1 2 - 1 3 - 2 3;1 4 - 1 - 1 3 - 3 - 2;0.2;0.6466977219;21;5;done;0;0;1 4;1337.862
1;2018-03-04;11:02:32.381000;type1;training;train;1 3 4 - 1 - 1 2 - 1 3 - 2 3;1 4 - 1 - 1 3 - 3 - 2;0.2;0.6466977219;21;5;done;1;1 4;1;348.291
1;2018-03-04;11:02:32.381000;type1;training;train;1 3 4 - 1 - 1 2 - 1 3 - 2 3;1 4 - 1 - 1 3 - 3 - 2;0.2;0.6466977219;21;5;done;2;1;1 3;432.469
1;2018-03-04;11:02:32.381000;type1;training;train;1 3 4 - 1 - 1 2 - 1 3 - 2 3;1 4 - 1 - 1 3 - 3 - 2;0.2;0.6466977219;21;5;done;3;1 3;3;753.079
1;2018-03-04;11:02:32.381000;type1;training;train;1 3 4 - 1 - 1 2 - 1 3 - 2 3;1 4 - 1 - 1 3 - 3 - 2;0.2;0.6466977219;21;5;done;4;3;2;12.478
1;2018-03-04;11:02:32.381000;type1;training;train;1 3 4 - 1 - 1 2 - 1 3 - 2 3;1 3 4 - 1 - 1 2 - 1 3 - 2 3;1;0.6306797677;22;6;done;0;0;1 3 4;718.297
1;2018-03-04;11:02:32.381000;type1;training;train;1 3 4 - 1 - 1 2 - 1 3 - 2 3;1 3 4 - 1 - 1 2 - 1 3 - 2 3;1;0.6306797677;22;6;done;1;1 3 4;1;402.465
1;2018-03-04;11:02:32.381000;type1;training;train;1 3 4 - 1 - 1 2 - 1 3 - 2 3;1 3 4 - 1 - 1 2 - 1 3 - 2 3;1;0.6306797677;22;6;done;2;1;1 2;470.993
1;2018-03-04;11:02:32.381000;type1;training;train;1 3 4 - 1 - 1 2 - 1 3 - 2 3;1 3 4 - 1 - 1 2 - 1 3 - 2 3;1;0.6306797677;22;6;done;3;1 2;1 3;365.231
1;2018-03-04;11:02:32.381000;type1;training;train;1 3 4 - 1 - 1 2 - 1 3 - 2 3;1 3 4 - 1 - 1 2 - 1 3 - 2 3;1;0.6306797677;22;6;done;4;1 3;2 3;346.903
1;2018-03-04;11:02:32.381000;type1;training;train;1 3 4 - 1 - 1 2 - 1 3 - 2 3;1 3 4 - 1 - 1 2 - 1 2 3 - 2 3;0.8;0.4675540129;23;6;done;0;0;1 3 4;864.843
1;2018-03-04;11:02:32.381000;type1;training;train;1 3 4 - 1 - 1 2 - 1 3 - 2 3;1 3 4 - 1 - 1 2 - 1 2 3 - 2 3;0.8;0.4675540129;23;6;done;1;1 3 4;1;364.62
1;2018-03-04;11:02:32.381000;type1;training;train;1 3 4 - 1 - 1 2 - 1 3 - 2 3;1 3 4 - 1 - 1 2 - 1 2 3 - 2 3;0.8;0.4675540129;23;6;done;2;1;1 2;932.814
1;2018-03-04;11:02:32.381000;type1;training;train;1 3 4 - 1 - 1 2 - 1 3 - 2 3;1 3 4 - 1 - 1 2 - 1 2 3 - 2 3;0.8;0.4675540129;23;6;done;3;1 2;1 2 3;378.055
1;2018-03-04;11:02:32.381000;type1;training;train;1 3 4 - 1 - 1 2 - 1 3 - 2 3;1 3 4 - 1 - 1 2 - 1 2 3 - 2 3;0.8;0.4675540129;23;6;done;4;1 2 3;2 3;463.3
1;2018-03-04;11:02:32.381000;type1;training;train;1 3 4 - 1 - 1 2 - 1 3 - 2 3;1 3 4 - 1 - 1 2 - 1 3 - 2 3;1;0.5180818434;24;7;done;0;0;1 3 4;1059.777
1;2018-03-04;11:02:32.381000;type1;training;train;1 3 4 - 1 - 1 2 - 1 3 - 2 3;1 3 4 - 1 - 1 2 - 1 3 - 2 3;1;0.5180818434;24;7;done;1;1 3 4;1;371.167
1;2018-03-04;11:02:32.381000;type1;training;train;1 3 4 - 1 - 1 2 - 1 3 - 2 3;1 3 4 - 1 - 1 2 - 1 3 - 2 3;1;0.5180818434;24;7;done;2;1;1 2;819.402
1;2018-03-04;11:02:32.381000;type1;training;train;1 3 4 - 1 - 1 2 - 1 3 - 2 3;1 3 4 - 1 - 1 2 - 1 3 - 2 3;1;0.5180818434;24;7;done;3;1 2;1 3;397.973
1;2018-03-04;11:02:32.381000;type1;training;train;1 3 4 - 1 - 1 2 - 1 3 - 2 3;1 3 4 - 1 - 1 2 - 1 3 - 2 3;1;0.5180818434;24;7;done;4;1 3;2 3;341.655
1;2018-03-04;11:02:32.381000;type1;training;train;1 3 4 - 1 - 1 2 - 1 3 - 2 3;1 4 - 1 - 1 2 - 2 3 - 2 3;0.6;0.46475287;25;7;done;0;0;1 4;786.382
1;2018-03-04;11:02:32.381000;type1;training;train;1 3 4 - 1 - 1 2 - 1 3 - 2 3;1 4 - 1 - 1 2 - 2 3 - 2 3;0.6;0.46475287;25;7;done;1;1 4;1;355.871
1;2018-03-04;11:02:32.381000;type1;training;train;1 3 4 - 1 - 1 2 - 1 3 - 2 3;1 4 - 1 - 1 2 - 2 3 - 2 3;0.6;0.46475287;25;7;done;2;1;1 2;1047.22
1;2018-03-04;11:02:32.381000;type1;training;train;1 3 4 - 1 - 1 2 - 1 3 - 2 3;1 4 - 1 - 1 2 - 2 3 - 2 3;0.6;0.46475287;25;7;done;3;1 2;2 3;353.701
1;2018-03-04;11:02:32.381000;type1;training;train;1 3 4 - 1 - 1 2 - 1 3 - 2 3;1 4 - 1 - 1 2 - 2 3 - 2 3;0.6;0.46475287;25;7;done;4;2 3;2 3;394.889
1;2018-03-04;11:02:32.381000;type1;training;train;1 3 4 - 1 - 1 2 - 1 3 - 2 3;1 3 4 - 1 - 1 2 - 1 2 3 - 2 3;0.8;0.6270492573;26;7;done;0;0;1 3 4;877.282
1;2018-03-04;11:02:32.381000;type1;training;train;1 3 4 - 1 - 1 2 - 1 3 - 2 3;1 3 4 - 1 - 1 2 - 1 2 3 - 2 3;0.8;0.6270492573;26;7;done;1;1 3 4;1;369.084
1;2018-03-04;11:02:32.381000;type1;training;train;1 3 4 - 1 - 1 2 - 1 3 - 2 3;1 3 4 - 1 - 1 2 - 1 2 3 - 2 3;0.8;0.6270492573;26;7;done;2;1;1 2;431.748
1;2018-03-04;11:02:32.381000;type1;training;train;1 3 4 - 1 - 1 2 - 1 3 - 2 3;1 3 4 - 1 - 1 2 - 1 2 3 - 2 3;0.8;0.6270492573;26;7;done;3;1 2;1 2 3;375.007
1;2018-03-04;11:02:32.381000;type1;training;train;1 3 4 - 1 - 1 2 - 1 3 - 2 3;1 3 4 - 1 - 1 2 - 1 2 3 - 2 3;0.8;0.6270492573;26;7;done;4;1 2 3;2 3;418.931
1;2018-03-04;11:02:32.381000;type1;training;train;1 3 4 - 1 - 1 2 - 1 3 - 2 3;1 3 4 - 1 - 1 2 - 1 3 - 2 3;1;0.6946139429;27;8;done;0;0;1 3 4;521.595
1;2018-03-04;11:02:32.381000;type1;training;train;1 3 4 - 1 - 1 2 - 1 3 - 2 3;1 3 4 - 1 - 1 2 - 1 3 - 2 3;1;0.6946139429;27;8;done;1;1 3 4;1;330.265
1;2018-03-04;11:02:32.381000;type1;training;train;1 3 4 - 1 - 1 2 - 1 3 - 2 3;1 3 4 - 1 - 1 2 - 1 3 - 2 3;1;0.6946139429;27;8;done;2;1;1 2;379.891
1;2018-03-04;11:02:32.381000;type1;training;train;1 3 4 - 1 - 1 2 - 1 3 - 2 3;1 3 4 - 1 - 1 2 - 1 3 - 2 3;1;0.6946139429;27;8;done;3;1 2;1 3;383.409
1;2018-03-04;11:02:32.381000;type1;training;train;1 3 4 - 1 - 1 2 - 1 3 - 2 3;1 3 4 - 1 - 1 2 - 1 3 - 2 3;1;0.6946139429;27;8;done;4;1 3;2 3;346.083
1;2018-03-04;11:02:32.381000;type1;training;train;1 3 4 - 1 - 1 2 - 1 3 - 2 3;1 3 4 - 1 - 1 2 - 1 3 - 2 3;1;0.5805087561;28;9;done;0;0;1 3 4;2240.3
1;2018-03-04;11:02:32.381000;type1;training;train;1 3 4 - 1 - 1 2 - 1 3 - 2 3;1 3 4 - 1 - 1 2 - 1 3 - 2 3;1;0.5805087561;28;9;done;1;1 3 4;1;344.505
1;2018-03-04;11:02:32.381000;type1;training;train;1 3 4 - 1 - 1 2 - 1 3 - 2 3;1 3 4 - 1 - 1 2 - 1 3 - 2 3;1;0.5805087561;28;9;done;2;1;1 2;713.103
1;2018-03-04;11:02:32.381000;type1;training;train;1 3 4 - 1 - 1 2 - 1 3 - 2 3;1 3 4 - 1 - 1 2 - 1 3 - 2 3;1;0.5805087561;28;9;done;3;1 2;1 3;323.847
1;2018-03-04;11:02:32.381000;type1;training;train;1 3 4 - 1 - 1 2 - 1 3 - 2 3;1 3 4 - 1 - 1 2 - 1 3 - 2 3;1;0.5805087561;28;9;done;4;1 3;2 3;341.171
1;2018-03-04;11:02:32.381000;type1;training;train;1 3 4 - 1 - 1 2 - 1 3 - 2 3;1 3 4 - 1 - 1 2 - 1 3 - 2 3;1;0.5829246292;29;10;done;0;0;1 3 4;1686.515
1;2018-03-04;11:02:32.381000;type1;training;train;1 3 4 - 1 - 1 2 - 1 3 - 2 3;1 3 4 - 1 - 1 2 - 1 3 - 2 3;1;0.5829246292;29;10;done;1;1 3 4;1;325.013
1;2018-03-04;11:02:32.381000;type1;training;train;1 3 4 - 1 - 1 2 - 1 3 - 2 3;1 3 4 - 1 - 1 2 - 1 3 - 2 3;1;0.5829246292;29;10;done;2;1;1 2;613.509
1;2018-03-04;11:02:32.381000;type1;training;train;1 3 4 - 1 - 1 2 - 1 3 - 2 3;1 3 4 - 1 - 1 2 - 1 3 - 2 3;1;0.5829246292;29;10;done;3;1 2;1 3;345.036
1;2018-03-04;11:02:32.381000;type1;training;train;1 3 4 - 1 - 1 2 - 1 3 - 2 3;1 3 4 - 1 - 1 2 - 1 3 - 2 3;1;0.5829246292;29;10;done;4;1 3;2 3;431.93
1;2018-03-04;11:02:32.381000;type1;training;train;1 3 4 - 1 - 1 2 - 1 3 - 2 3;1 3 4 - 1 - 1 2 - 1 3 - 2 3;1;0.6190436333;30;11;done;0;0;1 3 4;1139.748
1;2018-03-04;11:02:32.381000;type1;training;train;1 3 4 - 1 - 1 2 - 1 3 - 2 3;1 3 4 - 1 - 1 2 - 1 3 - 2 3;1;0.6190436333;30;11;done;1;1 3 4;1;315.378
1;2018-03-04;11:02:32.381000;type1;training;train;1 3 4 - 1 - 1 2 - 1 3 - 2 3;1 3 4 - 1 - 1 2 - 1 3 - 2 3;1;0.6190436333;30;11;done;2;1;1 2;471.484
1;2018-03-04;11:02:32.381000;type1;training;train;1 3 4 - 1 - 1 2 - 1 3 - 2 3;1 3 4 - 1 - 1 2 - 1 3 - 2 3;1;0.6190436333;30;11;done;3;1 2;1 3;445.613
1;2018-03-04;11:02:32.381000;type1;training;train;1 3 4 - 1 - 1 2 - 1 3 - 2 3;1 3 4 - 1 - 1 2 - 1 3 - 2 3;1;0.6190436333;30;11;done;4;1 3;2 3;382.92
1;2018-03-04;11:02:32.381000;type1;training;train;3 4 - 1 2 3 - 1 3 4 - 4 - 1 4;3 - 4 - 3 - 4;0.2;0.3694117394;1;1;done;0;0;3;-199.835
1;2018-03-04;11:02:32.381000;type1;training;train;3 4 - 1 2 3 - 1 3 4 - 4 - 1 4;3 - 4 - 3 - 4;0.2;0.3694117394;1;1;done;1;3;4;0.698
1;2018-03-04;11:02:32.381000;type1;training;train;3 4 - 1 2 3 - 1 3 4 - 4 - 1 4;3 - 4 - 3 - 4;0.2;0.3694117394;1;1;done;2;4;3;2692.354
1;2018-03-04;11:02:32.381000;type1;training;train;3 4 - 1 2 3 - 1 3 4 - 4 - 1 4;3 - 4 - 3 - 4;0.2;0.3694117394;1;1;done;3;3;4;13.954
1;2018-03-04;11:02:32.381000;type1;training;train;3 4 - 1 2 3 - 1 3 4 - 4 - 1 4;3 4 - 3 - 4 - 1 3 - 2;0.2;0.2805631519;2;1;done;0;0;3 4;-199.377
1;2018-03-04;11:02:32.381000;type1;training;train;3 4 - 1 2 3 - 1 3 4 - 4 - 1 4;3 4 - 3 - 4 - 1 3 - 2;0.2;0.2805631519;2;1;done;1;3 4;3;2211.621
1;2018-03-04;11:02:32.381000;type1;training;train;3 4 - 1 2 3 - 1 3 4 - 4 - 1 4;3 4 - 3 - 4 - 1 3 - 2;0.2;0.2805631519;2;1;done;2;3;4;12.885
1;2018-03-04;11:02:32.381000;type1;training;train;3 4 - 1 2 3 - 1 3 4 - 4 - 1 4;3 4 - 3 - 4 - 1 3 - 2;0.2;0.2805631519;2;1;done;3;4;1 3;1297.472
1;2018-03-04;11:02:32.381000;type1;training;train;3 4 - 1 2 3 - 1 3 4 - 4 - 1 4;3 4 - 3 - 4 - 1 3 - 2;0.2;0.2805631519;2;1;done;4;1 3;2;42.282
1;2018-03-04;11:02:32.381000;type1;training;train;3 4 - 1 2 3 - 1 3 4 - 4 - 1 4;0;0;0;3;1;missed;0;0;0;4000
1;2018-03-04;11:02:32.381000;type1;training;train;3 4 - 1 2 3 - 1 3 4 - 4 - 1 4;1 2 3 3 4 - 3 4 - 1 2 3 - 4 - 1 3;0.2;0.268615423;4;1;done;0;0;1 2 3 3 4;-198.356
1;2018-03-04;11:02:32.381000;type1;training;train;3 4 - 1 2 3 - 1 3 4 - 4 - 1 4;1 2 3 3 4 - 3 4 - 1 2 3 - 4 - 1 3;0.2;0.268615423;4;1;done;1;1 2 3 3 4;3 4;1746.914
1;2018-03-04;11:02:32.381000;type1;training;train;3 4 - 1 2 3 - 1 3 4 - 4 - 1 4;1 2 3 3 4 - 3 4 - 1 2 3 - 4 - 1 3;0.2;0.268615423;4;1;done;2;3 4;1 2 3;794.811
1;2018-03-04;11:02:32.381000;type1;training;train;3 4 - 1 2 3 - 1 3 4 - 4 - 1 4;1 2 3 3 4 - 3 4 - 1 2 3 - 4 - 1 3;0.2;0.268615423;4;1;done;3;1 2 3;4;1161.122
1;2018-03-04;11:02:32.381000;type1;training;train;3 4 - 1 2 3 - 1 3 4 - 4 - 1 4;1 2 3 3 4 - 3 4 - 1 2 3 - 4 - 1 3;0.2;0.268615423;4;1;done;4;4;1 3;19.947
1;2018-03-04;11:02:32.381000;type1;training;train;3 4 - 1 2 3 - 1 3 4 - 4 - 1 4;3 4 - 1 2 3 - 1 3 4 - 4 - 1 4;1;0.4696578813;5;2;done;0;0;3 4;1565.089
1;2018-03-04;11:02:32.381000;type1;training;train;3 4 - 1 2 3 - 1 3 4 - 4 - 1 4;3 4 - 1 2 3 - 1 3 4 - 4 - 1 4;1;0.4696578813;5;2;done;1;3 4;1 2 3;597.237
1;2018-03-04;11:02:32.381000;type1;training;train;3 4 - 1 2 3 - 1 3 4 - 4 - 1 4;3 4 - 1 2 3 - 1 3 4 - 4 - 1 4;1;0.4696578813;5;2;done;2;1 2 3;1 3 4;617.136
1;2018-03-04;11:02:32.381000;type1;training;train;3 4 - 1 2 3 - 1 3 4 - 4 - 1 4;3 4 - 1 2 3 - 1 3 4 - 4 - 1 4;1;0.4696578813;5;2;done;3;1 3 4;4;517.175
1;2018-03-04;11:02:32.381000;type1;training;train;3 4 - 1 2 3 - 1 3 4 - 4 - 1 4;3 4 - 1 2 3 - 1 3 4 - 4 - 1 4;1;0.4696578813;5;2;done;4;4;1 4;397.661
1;2018-03-04;11:02:32.381000;type1;training;train;3 4 - 1 2 3 - 1 3 4 - 4 - 1 4;3 4 - 1 2 3 - 1 3 4 - 4 - 1 4;1;0.4394512504;6;3;done;0;0;3 4;1193.911
1;2018-03-04;11:02:32.381000;type1;training;train;3 4 - 1 2 3 - 1 3 4 - 4 - 1 4;3 4 - 1 2 3 - 1 3 4 - 4 - 1 4;1;0.4394512504;6;3;done;1;3 4;1 2 3;587.942
1;2018-03-04;11:02:32.381000;type1;training;train;3 4 - 1 2 3 - 1 3 4 - 4 - 1 4;3 4 - 1 2 3 - 1 3 4 - 4 - 1 4;1;0.4394512504;6;3;done;2;1 2 3;1 3 4;587.889
1;2018-03-04;11:02:32.381000;type1;training;train;3 4 - 1 2 3 - 1 3 4 - 4 - 1 4;3 4 - 1 2 3 - 1 3 4 - 4 - 1 4;1;0.4394512504;6;3;done;3;1 3 4;4;628.44
1;2018-03-04;11:02:32.381000;type1;training;train;3 4 - 1 2 3 - 1 3 4 - 4 - 1 4;3 4 - 1 2 3 - 1 3 4 - 4 - 1 4;1;0.4394512504;6;3;done;4;4;1 4;471.295
1;2018-03-04;11:02:32.381000;type1;training;train;3 4 - 1 2 3 - 1 3 4 - 4 - 1 4;3 4 - 3 - 1 2 - 1 3 4 - 2 3 4;0.2;0.4566838382;7;3;done;0;0;3 4;1793.962
1;2018-03-04;11:02:32.381000;type1;training;train;3 4 - 1 2 3 - 1 3 4 - 4 - 1 4;3 4 - 3 - 1 2 - 1 3 4 - 2 3 4;0.2;0.4566838382;7;3;done;1;3 4;3;472.529
1;2018-03-04;11:02:32.381000;type1;training;train;3 4 - 1 2 3 - 1 3 4 - 4 - 1 4;3 4 - 3 - 1 2 - 1 3 4 - 2 3 4;0.2;0.4566838382;7;3;done;2;3;1 2;14.687
1;2018-03-04;11:02:32.381000;type1;training;train;3 4 - 1 2 3 - 1 3 4 - 4 - 1 4;3 4 - 3 - 1 2 - 1 3 4 - 2 3 4;0.2;0.4566838382;7;3;done;3;1 2;1 3 4;1062.078
1;2018-03-04;11:02:32.381000;type1;training;train;3 4 - 1 2 3 - 1 3 4 - 4 - 1 4;3 4 - 3 - 1 2 - 1 3 4 - 2 3 4;0.2;0.4566838382;7;3;done;4;1 3 4;2 3 4;640.405
1;2018-03-04;11:02:32.381000;type1;training;train;3 4 - 1 2 3 - 1 3 4 - 4 - 1 4;3 4 - 1 2 3 - 1 3 4 - 4 - 1 4;1;0.4261359898;8;4;done;0;0;3 4;1552.2
1;2018-03-04;11:02:32.381000;type1;training;train;3 4 - 1 2 3 - 1 3 4 - 4 - 1 4;3 4 - 1 2 3 - 1 3 4 - 4 - 1 4;1;0.4261359898;8;4;done;1;3 4;1 2 3;612.652
1;2018-03-04;11:02:32.381000;type1;training;train;3 4 - 1 2 3 - 1 3 4 - 4 - 1 4;3 4 - 1 2 3 - 1 3 4 - 4 - 1 4;1;0.4261359898;8;4;done;2;1 2 3;1 3 4;835.004
1;2018-03-04;11:02:32.381000;type1;training;train;3 4 - 1 2 3 - 1 3 4 - 4 - 1 4;3 4 - 1 2 3 - 1 3 4 - 4 - 1 4;1;0.4261359898;8;4;done;3;1 3 4;4;557.962
1;2018-03-04;11:02:32.381000;type1;training;train;3 4 - 1 2 3 - 1 3 4 - 4 - 1 4;3 4 - 1 2 3 - 1 3 4 - 4 - 1 4;1;0.4261359898;8;4;done;4;4;1 4;341.051
1;2018-03-04;11:02:32.381000;type1;training;train;3 4 - 1 2 3 - 1 3 4 - 4 - 1 4;1 4 - 3 - 3 - 1 2 - 3 4;0;0.3945196045;9;4;done;0;0;1 4;1405.03
1;2018-03-04;11:02:32.381000;type1;training;train;3 4 - 1 2 3 - 1 3 4 - 4 - 1 4;1 4 - 3 - 3 - 1 2 - 3 4;0;0.3945196045;9;4;done;1;1 4;3;11.812
1;2018-03-04;11:02:32.381000;type1;training;train;3 4 - 1 2 3 - 1 3 4 - 4 - 1 4;1 4 - 3 - 3 - 1 2 - 3 4;0;0.3945196045;9;4;done;2;3;3;496.138
1;2018-03-04;11:02:32.381000;type1;training;train;3 4 - 1 2 3 - 1 3 4 - 4 - 1 4;1 4 - 3 - 3 - 1 2 - 3 4;0;0.3945196045;9;4;done;3;3;1 2;15.14
1;2018-03-04;11:02:32.381000;type1;training;train;3 4 - 1 2 3 - 1 3 4 - 4 - 1 4;1 4 - 3 - 3 - 1 2 - 3 4;0;0.3945196045;9;4;done;4;1 2;3 4;2011.638
1;2018-03-04;11:02:32.381000;type1;training;train;3 4 - 1 2 3 - 1 3 4 - 4 - 1 4;3 4 - 1 2 3 - 1 3 4 - 4 - 1 4;1;0.3818179443;10;5;done;0;0;3 4;1337.227
1;2018-03-04;11:02:32.381000;type1;training;train;3 4 - 1 2 3 - 1 3 4 - 4 - 1 4;3 4 - 1 2 3 - 1 3 4 - 4 - 1 4;1;0.3818179443;10;5;done;1;3 4;1 2 3;565.256
1;2018-03-04;11:02:32.381000;type1;training;train;3 4 - 1 2 3 - 1 3 4 - 4 - 1 4;3 4 - 1 2 3 - 1 3 4 - 4 - 1 4;1;0.3818179443;10;5;done;2;1 2 3;1 3 4;928.454
1;2018-03-04;11:02:32.381000;type1;training;train;3 4 - 1 2 3 - 1 3 4 - 4 - 1 4;3 4 - 1 2 3 - 1 3 4 - 4 - 1 4;1;0.3818179443;10;5;done;3;1 3 4;4;829.509
1;2018-03-04;11:02:32.381000;type1;training;train;3 4 - 1 2 3 - 1 3 4 - 4 - 1 4;3 4 - 1 2 3 - 1 3 4 - 4 - 1 4;1;0.3818179443;10;5;done;4;4;1 4;295.831
1;2018-03-04;11:02:32.381000;type1;training;train;3 4 - 1 2 3 - 1 3 4 - 4 - 1 4;3 4 - 1 2 3 - 1 3 4 - 4 - 1 4;1;0.5168721698;11;6;done;0;0;3 4;1137.376
1;2018-03-04;11:02:32.381000;type1;training;train;3 4 - 1 2 3 - 1 3 4 - 4 - 1 4;3 4 - 1 2 3 - 1 3 4 - 4 - 1 4;1;0.5168721698;11;6;done;1;3 4;1 2 3;504.287
1;2018-03-04;11:02:32.381000;type1;training;train;3 4 - 1 2 3 - 1 3 4 - 4 - 1 4;3 4 - 1 2 3 - 1 3 4 - 4 - 1 4;1;0.5168721698;11;6;done;2;1 2 3;1 3 4;597.606
1;2018-03-04;11:02:32.381000;type1;training;train;3 4 - 1 2 3 - 1 3 4 - 4 - 1 4;3 4 - 1 2 3 - 1 3 4 - 4 - 1 4;1;0.5168721698;11;6;done;3;1 3 4;4;547.645
1;2018-03-04;11:02:32.381000;type1;training;train;3 4 - 1 2 3 - 1 3 4 - 4 - 1 4;3 4 - 1 2 3 - 1 3 4 - 4 - 1 4;1;0.5168721698;11;6;done;4;4;1 4;285.177
1;2018-03-04;11:02:32.381000;type1;training;train;3 4 - 1 2 3 - 1 3 4 - 4 - 1 4;3 4 - 1 2 3 - 1 3 4 - 4 - 1 4;1;0.5166482784;12;7;done;0;0;3 4;1112.608
1;2018-03-04;11:02:32.381000;type1;training;train;3 4 - 1 2 3 - 1 3 4 - 4 - 1 4;3 4 - 1 2 3 - 1 3 4 - 4 - 1 4;1;0.5166482784;12;7;done;1;3 4;1 2 3;305.193
1;2018-03-04;11:02:32.381000;type1;training;train;3 4 - 1 2 3 - 1 3 4 - 4 - 1 4;3 4 - 1 2 3 - 1 3 4 - 4 - 1 4;1;0.5166482784;12;7;done;2;1 2 3;1 3 4;1001.677
1;2018-03-04;11:02:32.381000;type1;training;train;3 4 - 1 2 3 - 1 3 4 - 4 - 1 4;3 4 - 1 2 3 - 1 3 4 - 4 - 1 4;1;0.5166482784;12;7;done;3;1 3 4;4;345.417
1;2018-03-04;11:02:32.381000;type1;training;train;3 4 - 1 2 3 - 1 3 4 - 4 - 1 4;3 4 - 1 2 3 - 1 3 4 - 4 - 1 4;1;0.5166482784;12;7;done;4;4;1 4;283.267
1;2018-03-04;11:02:32.381000;type1;training;train;3 4 - 1 2 3 - 1 3 4 - 4 - 1 4;3 4 - 1 2 3 - 3 4 - 4 - 1 4;0.8;0.437032683;13;7;done;0;0;3 4;1169.743
1;2018-03-04;11:02:32.381000;type1;training;train;3 4 - 1 2 3 - 1 3 4 - 4 - 1 4;3 4 - 1 2 3 - 3 4 - 4 - 1 4;0.8;0.437032683;13;7;done;1;3 4;1 2 3;360.589
1;2018-03-04;11:02:32.381000;type1;training;train;3 4 - 1 2 3 - 1 3 4 - 4 - 1 4;3 4 - 1 2 3 - 3 4 - 4 - 1 4;0.8;0.437032683;13;7;done;2;1 2 3;3 4;916.024
1;2018-03-04;11:02:32.381000;type1;training;train;3 4 - 1 2 3 - 1 3 4 - 4 - 1 4;3 4 - 1 2 3 - 3 4 - 4 - 1 4;0.8;0.437032683;13;7;done;3;3 4;4;776.663
1;2018-03-04;11:02:32.381000;type1;training;train;3 4 - 1 2 3 - 1 3 4 - 4 - 1 4;3 4 - 1 2 3 - 3 4 - 4 - 1 4;0.8;0.437032683;13;7;done;4;4;1 4;234.883
1;2018-03-04;11:02:32.381000;type1;training;train;3 4 - 1 2 3 - 1 3 4 - 4 - 1 4;3 4 - 1 2 3 - 1 3 4 - 4 - 1 4;1;0.4605358497;14;8;done;0;0;3 4;1024.888
1;2018-03-04;11:02:32.381000;type1;training;train;3 4 - 1 2 3 - 1 3 4 - 4 - 1 4;3 4 - 1 2 3 - 1 3 4 - 4 - 1 4;1;0.4605358497;14;8;done;1;3 4;1 2 3;433.735
1;2018-03-04;11:02:32.381000;type1;training;train;3 4 - 1 2 3 - 1 3 4 - 4 - 1 4;3 4 - 1 2 3 - 1 3 4 - 4 - 1 4;1;0.4605358497;14;8;done;2;1 2 3;1 3 4;762.476
1;2018-03-04;11:02:32.381000;type1;training;train;3 4 - 1 2 3 - 1 3 4 - 4 - 1 4;3 4 - 1 2 3 - 1 3 4 - 4 - 1 4;1;0.4605358497;14;8;done;3;1 3 4;4;672.514
1;2018-03-04;11:02:32.381000;type1;training;train;3 4 - 1 2 3 - 1 3 4 - 4 - 1 4;3 4 - 1 2 3 - 1 3 4 - 4 - 1 4;1;0.4605358497;14;8;done;4;4;1 4;302.658
1;2018-03-04;11:02:32.381000;type1;training;train;3 4 - 1 2 3 - 1 3 4 - 4 - 1 4;3 4 - 1 2 3 - 1 3 4 - 4 - 1 4;1;0.4978491585;15;9;done;0;0;3 4;814.916
1;2018-03-04;11:02:32.381000;type1;training;train;3 4 - 1 2 3 - 1 3 4 - 4 - 1 4;3 4 - 1 2 3 - 1 3 4 - 4 - 1 4;1;0.4978491585;15;9;done;1;3 4;1 2 3;475.847
1;2018-03-04;11:02:32.381000;type1;training;train;3 4 - 1 2 3 - 1 3 4 - 4 - 1 4;3 4 - 1 2 3 - 1 3 4 - 4 - 1 4;1;0.4978491585;15;9;done;2;1 2 3;1 3 4;439.497
1;2018-03-04;11:02:32.381000;type1;training;train;3 4 - 1 2 3 - 1 3 4 - 4 - 1 4;3 4 - 1 2 3 - 1 3 4 - 4 - 1 4;1;0.4978491585;15;9;done;3;1 3 4;4;738.388
1;2018-03-04;11:02:32.381000;type1;training;train;3 4 - 1 2 3 - 1 3 4 - 4 - 1 4;3 4 - 1 2 3 - 1 3 4 - 4 - 1 4;1;0.4978491585;15;9;done;4;4;1 4;354.909
1;2018-03-04;11:02:32.381000;type1;training;train;3 4 - 1 2 3 - 1 3 4 - 4 - 1 4;3 4 - 1 2 3 - 1 4 - 4 - 1 4;0.8;0.4924546686;16;9;done;0;0;3 4;1372.921
1;2018-03-04;11:02:32.381000;type1;training;train;3 4 - 1 2 3 - 1 3 4 - 4 - 1 4;3 4 - 1 2 3 - 1 4 - 4 - 1 4;0.8;0.4924546686;16;9;done;1;3 4;1 2 3;387.449
1;2018-03-04;11:02:32.381000;type1;training;train;3 4 - 1 2 3 - 1 3 4 - 4 - 1 4;3 4 - 1 2 3 - 1 4 - 4 - 1 4;0.8;0.4924546686;16;9;done;2;1 2 3;1 4;509.689
1;2018-03-04;11:02:32.381000;type1;training;train;3 4 - 1 2 3 - 1 3 4 - 4 - 1 4;3 4 - 1 2 3 - 1 4 - 4 - 1 4;0.8;0.4924546686;16;9;done;3;1 4;4;851.737
1;2018-03-04;11:02:32.381000;type1;training;train;3 4 - 1 2 3 - 1 3 4 - 4 - 1 4;3 4 - 1 2 3 - 1 4 - 4 - 1 4;0.8;0.4924546686;16;9;done;4;4;1 4;281.769
1;2018-03-04;11:02:32.381000;type1;training;train;3 4 - 1 2 3 - 1 3 4 - 4 - 1 4;3 4 - 1 2 3 - 1 3 4 - 4 - 1 4;1;0.599572104;17;10;done;0;0;3 4;1295.414
1;2018-03-04;11:02:32.381000;type1;training;train;3 4 - 1 2 3 - 1 3 4 - 4 - 1 4;3 4 - 1 2 3 - 1 3 4 - 4 - 1 4;1;0.599572104;17;10;done;1;3 4;1 2 3;409.144
1;2018-03-04;11:02:32.381000;type1;training;train;3 4 - 1 2 3 - 1 3 4 - 4 - 1 4;3 4 - 1 2 3 - 1 3 4 - 4 - 1 4;1;0.599572104;17;10;done;2;1 2 3;1 3 4;577.834
1;2018-03-04;11:02:32.381000;type1;training;train;3 4 - 1 2 3 - 1 3 4 - 4 - 1 4;3 4 - 1 2 3 - 1 3 4 - 4 - 1 4;1;0.599572104;17;10;done;3;1 3 4;4;346.41
1;2018-03-04;11:02:32.381000;type1;training;train;3 4 - 1 2 3 - 1 3 4 - 4 - 1 4;3 4 - 1 2 3 - 1 3 4 - 4 - 1 4;1;0.599572104;17;10;done;4;4;1 4;334.468
1;2018-03-04;11:02:32.381000;type1;training;train;3 4 - 1 2 3 - 1 3 4 - 4 - 1 4;3 4 - 1 2 3 - 3 4 - 1 4 - 1 4;0.6;0.458595542;18;10;done;0;0;3 4;981.385
1;2018-03-04;11:02:32.381000;type1;training;train;3 4 - 1 2 3 - 1 3 4 - 4 - 1 4;3 4 - 1 2 3 - 3 4 - 1 4 - 1 4;0.6;0.458595542;18;10;done;1;3 4;1 2 3;387.818
1;2018-03-04;11:02:32.381000;type1;training;train;3 4 - 1 2 3 - 1 3 4 - 4 - 1 4;3 4 - 1 2 3 - 3 4 - 1 4 - 1 4;0.6;0.458595542;18;10;done;2;1 2 3;3 4;913.738
1;2018-03-04;11:02:32.381000;type1;training;train;3 4 - 1 2 3 - 1 3 4 - 4 - 1 4;3 4 - 1 2 3 - 3 4 - 1 4 - 1 4;0.6;0.458595542;18;10;done;3;3 4;1 4;450.443
1;2018-03-04;11:02:32.381000;type1;training;train;3 4 - 1 2 3 - 1 3 4 - 4 - 1 4;3 4 - 1 2 3 - 3 4 - 1 4 - 1 4;0.6;0.458595542;18;10;done;4;1 4;1 4;428.572
1;2018-03-04;11:02:32.381000;type1;training;train;3 4 - 1 2 3 - 1 3 4 - 4 - 1 4;3 4 - 1 2 3 - 1 3 4 - 4 - 1 4;1;0.5376544397;19;11;done;0;0;3 4;1325.162
1;2018-03-04;11:02:32.381000;type1;training;train;3 4 - 1 2 3 - 1 3 4 - 4 - 1 4;3 4 - 1 2 3 - 1 3 4 - 4 - 1 4;1;0.5376544397;19;11;done;1;3 4;1 2 3;367.019
1;2018-03-04;11:02:32.381000;type1;training;train;3 4 - 1 2 3 - 1 3 4 - 4 - 1 4;3 4 - 1 2 3 - 1 3 4 - 4 - 1 4;1;0.5376544397;19;11;done;2;1 2 3;1 3 4;497.975
1;2018-03-04;11:02:32.381000;type1;training;train;3 4 - 1 2 3 - 1 3 4 - 4 - 1 4;3 4 - 1 2 3 - 1 3 4 - 4 - 1 4;1;0.5376544397;19;11;done;3;1 3 4;4;558.668
1;2018-03-04;11:02:32.381000;type1;training;train;3 4 - 1 2 3 - 1 3 4 - 4 - 1 4;3 4 - 1 2 3 - 1 3 4 - 4 - 1 4;1;0.5376544397;19;11;done;4;4;1 4;436.269
2;2018-03-04;17:36:25.953000;type1;training;train;1 3 4 - 1 - 1 2 - 1 3 - 2 3;1 4 - 3 - 1 - 2 - 1;0;2.7658592469;1;1;done;0;0;1 4;-200.202
;;;;;;;;;;;;;;;;
2;2018-03-04;17:36:25.953000;type1;training;train;1 3 4 - 1 - 1 2 - 1 3 - 2 3;1 4 - 3 - 1 - 2 - 1;0;2.7658592469;1;1;done;1;1 4;3;0.302
;;;;;;;;;;;;;;;;
2;2018-03-04;17:36:25.953000;type1;training;train;1 3 4 - 1 - 1 2 - 1 3 - 2 3;1 4 - 3 - 1 - 2 - 1;0;2.7658592469;1;1;done;2;3;1;0.349
;;;;;;;;;;;;;;;;
2;2018-03-04;17:36:25.953000;type1;training;train;1 3 4 - 1 - 1 2 - 1 3 - 2 3;1 4 - 3 - 1 - 2 - 1;0;2.7658592469;1;1;done;3;1;2;351.599
;;;;;;;;;;;;;;;;
2;2018-03-04;17:36:25.953000;type1;training;train;1 3 4 - 1 - 1 2 - 1 3 - 2 3;1 4 - 3 - 1 - 2 - 1;0;2.7658592469;1;1;done;4;2;1;9.301
;;;;;;;;;;;;;;;;
2;2018-03-04;17:36:25.953000;type1;training;train;1 3 4 - 1 - 1 2 - 1 3 - 2 3;1 1 4 - 1 3 4 - 1 - 1 2 - 1 2 3 3;0;0.3129362898;2;1;done;0;0;1 1 4;-199.795
;;;;;;;;;;;;;;;;
2;2018-03-04;17:36:25.953000;type1;training;train;1 3 4 - 1 - 1 2 - 1 3 - 2 3;1 1 4 - 1 3 4 - 1 - 1 2 - 1 2 3 3;0;0.3129362898;2;1;done;1;1 1 4;1 3 4;1351.294
;;;;;;;;;;;;;;;;
2;2018-03-04;17:36:25.953000;type1;training;train;1 3 4 - 1 - 1 2 - 1 3 - 2 3;1 1 4 - 1 3 4 - 1 - 1 2 - 1 2 3 3;0;0.3129362898;2;1;done;2;1 3 4;1;527.422
;;;;;;;;;;;;;;;;
2;2018-03-04;17:36:25.953000;type1;training;train;1 3 4 - 1 - 1 2 - 1 3 - 2 3;1 1 4 - 1 3 4 - 1 - 1 2 - 1 2 3 3;0;0.3129362898;2;1;done;3;1;1 2;705.921
;;;;;;;;;;;;;;;;
2;2018-03-04;17:36:25.953000;type1;training;train;1 3 4 - 1 - 1 2 - 1 3 - 2 3;1 1 4 - 1 3 4 - 1 - 1 2 - 1 2 3 3;0;0.3129362898;2;1;done;4;1 2;1 2 3 3;610.901
;;;;;;;;;;;;;;;;
2;2018-03-04;17:36:25.953000;type1;training;train;1 3 4 - 1 - 1 2 - 1 3 - 2 3;3 - 1 4 - 1 - 1 2 - 1 3;0;0.3620981272;3;1;done;0;0;3;1184.277
;;;;;;;;;;;;;;;;
2;2018-03-04;17:36:25.953000;type1;training;train;1 3 4 - 1 - 1 2 - 1 3 - 2 3;3 - 1 4 - 1 - 1 2 - 1 3;0;0.3620981272;3;1;done;1;3;1 4;29.311
;;;;;;;;;;;;;;;;
2;2018-03-04;17:36:25.953000;type1;training;train;1 3 4 - 1 - 1 2 - 1 3 - 2 3;3 - 1 4 - 1 - 1 2 - 1 3;0;0.3620981272;3;1;done;2;1 4;1;971.253
;;;;;;;;;;;;;;;;
2;2018-03-04;17:36:25.953000;type1;training;train;1 3 4 - 1 - 1 2 - 1 3 - 2 3;3 - 1 4 - 1 - 1 2 - 1 3;0;0.3620981272;3;1;done;3;1;1 2;1398.228
;;;;;;;;;;;;;;;;
2;2018-03-04;17:36:25.953000;type1;training;train;1 3 4 - 1 - 1 2 - 1 3 - 2 3;3 - 1 4 - 1 - 1 2 - 1 3;0;0.3620981272;3;1;done;4;1 2;1 3;362.891
;;;;;;;;;;;;;;;;
2;2018-03-04;17:36:25.953000;type1;training;train;1 3 4 - 1 - 1 2 - 1 3 - 2 3;1 3 4 - 1 - 1 2 - 1 3 - 2 3;1;0.4074862389;4;2;done;0;0;1 3 4;693.331
;;;;;;;;;;;;;;;;
2;2018-03-04;17:36:25.953000;type1;training;train;1 3 4 - 1 - 1 2 - 1 3 - 2 3;1 3 4 - 1 - 1 2 - 1 3 - 2 3;1;0.4074862389;4;2;done;1;1 3 4;1;529.443
;;;;;;;;;;;;;;;;
2;2018-03-04;17:36:25.953000;type1;training;train;1 3 4 - 1 - 1 2 - 1 3 - 2 3;1 3 4 - 1 - 1 2 - 1 3 - 2 3;1;0.4074862389;4;2;done;2;1;1 2;1134.875
;;;;;;;;;;;;;;;;
2;2018-03-04;17:36:25.953000;type1;training;train;1 3 4 - 1 - 1 2 - 1 3 - 2 3;1 3 4 - 1 - 1 2 - 1 3 - 2 3;1;0.4074862389;4;2;done;3;1 2;1 3;463.443
;;;;;;;;;;;;;;;;
2;2018-03-04;17:36:25.953000;type1;training;train;1 3 4 - 1 - 1 2 - 1 3 - 2 3;1 3 4 - 1 - 1 2 - 1 3 - 2 3;1;0.4074862389;4;2;done;4;1 3;2 3;326.309
;;;;;;;;;;;;;;;;
2;2018-03-04;17:36:25.953000;type1;training;train;1 3 4 - 1 - 1 2 - 1 3 - 2 3;1 3 4 - 1 - 1 2 - 1 3 - 2 3;1;0.4144429503;5;3;done;0;0;1 3 4;663.013
;;;;;;;;;;;;;;;;
2;2018-03-04;17:36:25.953000;type1;training;train;1 3 4 - 1 - 1 2 - 1 3 - 2 3;1 3 4 - 1 - 1 2 - 1 3 - 2 3;1;0.4144429503;5;3;done;1;1 3 4;1;762.094
;;;;;;;;;;;;;;;;
2;2018-03-04;17:36:25.953000;type1;training;train;1 3 4 - 1 - 1 2 - 1 3 - 2 3;1 3 4 - 1 - 1 2 - 1 3 - 2 3;1;0.4144429503;5;3;done;2;1;1 2;982.803
;;;;;;;;;;;;;;;;
2;2018-03-04;17:36:25.953000;type1;training;train;1 3 4 - 1 - 1 2 - 1 3 - 2 3;1 3 4 - 1 - 1 2 - 1 3 - 2 3;1;0.4144429503;5;3;done;3;1 2;1 3;369.284
;;;;;;;;;;;;;;;;
2;2018-03-04;17:36:25.953000;type1;training;train;1 3 4 - 1 - 1 2 - 1 3 - 2 3;1 3 4 - 1 - 1 2 - 1 3 - 2 3;1;0.4144429503;5;3;done;4;1 3;2 3;298.696
;;;;;;;;;;;;;;;;
2;2018-03-04;17:36:25.953000;type1;training;train;1 3 4 - 1 - 1 2 - 1 3 - 2 3;1 4 - 1 - 1 2 - 1 2 3 - 2 3;0.6;0.3649228288;6;3;done;0;0;1 4;691.84
;;;;;;;;;;;;;;;;
2;2018-03-04;17:36:25.953000;type1;training;train;1 3 4 - 1 - 1 2 - 1 3 - 2 3;1 4 - 1 - 1 2 - 1 2 3 - 2 3;0.6;0.3649228288;6;3;done;1;1 4;1;421.847
;;;;;;;;;;;;;;;;
2;2018-03-04;17:36:25.953000;type1;training;train;1 3 4 - 1 - 1 2 - 1 3 - 2 3;1 4 - 1 - 1 2 - 1 2 3 - 2 3;0.6;0.3649228288;6;3;done;2;1;1 2;908.402
;;;;;;;;;;;;;;;;
2;2018-03-04;17:36:25.953000;type1;training;train;1 3 4 - 1 - 1 2 - 1 3 - 2 3;1 4 - 1 - 1 2 - 1 2 3 - 2 3;0.6;0.3649228288;6;3;done;3;1 2;1 2 3;390.908
;;;;;;;;;;;;;;;;
2;2018-03-04;17:36:25.953000;type1;training;train;1 3 4 - 1 - 1 2 - 1 3 - 2 3;1 4 - 1 - 1 2 - 1 2 3 - 2 3;0.6;0.3649228288;6;3;done;4;1 2 3;2 3;1019.149
;;;;;;;;;;;;;;;;
2;2018-03-04;17:36:25.953000;type1;training;train;1 3 4 - 1 - 1 2 - 1 3 - 2 3;1 3 4 - 1 - 1 2 - 1 3 - 2 3;1;0.6058101151;7;4;done;0;0;1 3 4;1809.147
;;;;;;;;;;;;;;;;
2;2018-03-04;17:36:25.953000;type1;training;train;1 3 4 - 1 - 1 2 - 1 3 - 2 3;1 3 4 - 1 - 1 2 - 1 3 - 2 3;1;0.6058101151;7;4;done;1;1 3 4;1;408.623
;;;;;;;;;;;;;;;;
2;2018-03-04;17:36:25.953000;type1;training;train;1 3 4 - 1 - 1 2 - 1 3 - 2 3;1 3 4 - 1 - 1 2 - 1 3 - 2 3;1;0.6058101151;7;4;done;2;1;1 2;544.338
;;;;;;;;;;;;;;;;
2;2018-03-04;17:36:25.953000;type1;training;train;1 3 4 - 1 - 1 2 - 1 3 - 2 3;1 3 4 - 1 - 1 2 - 1 3 - 2 3;1;0.6058101151;7;4;done;3;1 2;1 3;375.134
;;;;;;;;;;;;;;;;
2;2018-03-04;17:36:25.953000;type1;training;train;1 3 4 - 1 - 1 2 - 1 3 - 2 3;1 3 4 - 1 - 1 2 - 1 3 - 2 3;1;0.6058101151;7;4;done;4;1 3;2 3;322.586
;;;;;;;;;;;;;;;;
2;2018-03-04;17:36:25.953000;type1;training;train;1 3 4 - 1 - 1 2 - 1 3 - 2 3;1 3 4 - 1 - 1 2 - 1 3 - 2 3;1;0.570453059;8;5;done;0;0;1 3 4;782.269
;;;;;;;;;;;;;;;;
2;2018-03-04;17:36:25.953000;type1;training;train;1 3 4 - 1 - 1 2 - 1 3 - 2 3;1 3 4 - 1 - 1 2 - 1 3 - 2 3;1;0.570453059;8;5;done;1;1 3 4;1;414.267
;;;;;;;;;;;;;;;;
2;2018-03-04;17:36:25.953000;type1;training;train;1 3 4 - 1 - 1 2 - 1 3 - 2 3;1 3 4 - 1 - 1 2 - 1 3 - 2 3;1;0.570453059;8;5;done;2;1;1 2;540.761
;;;;;;;;;;;;;;;;
2;2018-03-04;17:36:25.953000;type1;training;train;1 3 4 - 1 - 1 2 - 1 3 - 2 3;1 3 4 - 1 - 1 2 - 1 3 - 2 3;1;0.570453059;8;5;done;3;1 2;1 3;409.604
;;;;;;;;;;;;;;;;
2;2018-03-04;17:36:25.953000;type1;training;train;1 3 4 - 1 - 1 2 - 1 3 - 2 3;1 3 4 - 1 - 1 2 - 1 3 - 2 3;1;0.570453059;8;5;done;4;1 3;2 3;388.36
;;;;;;;;;;;;;;;;
2;2018-03-04;17:36:25.953000;type1;training;train;1 3 4 - 1 - 1 2 - 1 3 - 2 3;1 1 1 1 2 2 3 3 3 4 - 1 4 - 1 - 1 - 3;0;0.3193167547;9;5;done;0;0;1 1 1 1 2 2 3 3 3 4;-199.049
;;;;;;;;;;;;;;;;
2;2018-03-04;17:36:25.953000;type1;training;train;1 3 4 - 1 - 1 2 - 1 3 - 2 3;1 1 1 1 2 2 3 3 3 4 - 1 4 - 1 - 1 - 3;0;0.3193167547;9;5;done;1;1 1 1 1 2 2 3 3 3 4;1 4;2264.269
;;;;;;;;;;;;;;;;
2;2018-03-04;17:36:25.953000;type1;training;train;1 3 4 - 1 - 1 2 - 1 3 - 2 3;1 1 1 1 2 2 3 3 3 4 - 1 4 - 1 - 1 - 3;0;0.3193167547;9;5;done;2;1 4;1;324.603
;;;;;;;;;;;;;;;;
2;2018-03-04;17:36:25.953000;type1;training;train;1 3 4 - 1 - 1 2 - 1 3 - 2 3;1 1 1 1 2 2 3 3 3 4 - 1 4 - 1 - 1 - 3;0;0.3193167547;9;5;done;3;1;1;506.341
;;;;;;;;;;;;;;;;
2;2018-03-04;17:36:25.953000;type1;training;train;1 3 4 - 1 - 1 2 - 1 3 - 2 3;1 1 1 1 2 2 3 3 3 4 - 1 4 - 1 - 1 - 3;0;0.3193167547;9;5;done;4;1;3;36.474
;;;;;;;;;;;;;;;;
2;2018-03-04;17:36:25.953000;type1;training;train;1 3 4 - 1 - 1 2 - 1 3 - 2 3;1 3 4 - 1 1 2 - 1 3 - 3 - 2;0.2;3.8087026061;10;5;done;0;0;1 3 4;-199.715
;;;;;;;;;;;;;;;;
2;2018-03-04;17:36:25.953000;type1;training;train;1 3 4 - 1 - 1 2 - 1 3 - 2 3;1 3 4 - 1 1 2 - 1 3 - 3 - 2;0.2;3.8087026061;10;5;done;1;1 3 4;1 1 2;0.812
;;;;;;;;;;;;;;;;
2;2018-03-04;17:36:25.953000;type1;training;train;1 3 4 - 1 - 1 2 - 1 3 - 2 3;1 3 4 - 1 1 2 - 1 3 - 3 - 2;0.2;3.8087026061;10;5;done;2;1 1 2;1 3;0.586
;;;;;;;;;;;;;;;;
2;2018-03-04;17:36:25.953000;type1;training;train;1 3 4 - 1 - 1 2 - 1 3 - 2 3;1 3 4 - 1 1 2 - 1 3 - 3 - 2;0.2;3.8087026061;10;5;done;3;1 3;3;249.544
;;;;;;;;;;;;;;;;
2;2018-03-04;17:36:25.953000;type1;training;train;1 3 4 - 1 - 1 2 - 1 3 - 2 3;1 3 4 - 1 1 2 - 1 3 - 3 - 2;0.2;3.8087026061;10;5;done;4;3;2;11.614
;;;;;;;;;;;;;;;;
2;2018-03-04;17:36:25.953000;type1;training;train;1 3 4 - 1 - 1 2 - 1 3 - 2 3;1 3 4 - 1 - 1 2 - 1 3 - 2 3;1;0.6516260772;11;6;done;0;0;1 3 4;740.972
;;;;;;;;;;;;;;;;
2;2018-03-04;17:36:25.953000;type1;training;train;1 3 4 - 1 - 1 2 - 1 3 - 2 3;1 3 4 - 1 - 1 2 - 1 3 - 2 3;1;0.6516260772;11;6;done;1;1 3 4;1;413.419
;;;;;;;;;;;;;;;;
2;2018-03-04;17:36:25.953000;type1;training;train;1 3 4 - 1 - 1 2 - 1 3 - 2 3;1 3 4 - 1 - 1 2 - 1 3 - 2 3;1;0.6516260772;11;6;done;2;1;1 2;433.159
;;;;;;;;;;;;;;;;
2;2018-03-04;17:36:25.953000;type1;training;train;1 3 4 - 1 - 1 2 - 1 3 - 2 3;1 3 4 - 1 - 1 2 - 1 3 - 2 3;1;0.6516260772;11;6;done;3;1 2;1 3;346.53
;;;;;;;;;;;;;;;;
2;2018-03-04;17:36:25.953000;type1;training;train;1 3 4 - 1 - 1 2 - 1 3 - 2 3;1 3 4 - 1 - 1 2 - 1 3 - 2 3;1;0.6516260772;11;6;done;4;1 3;2 3;341.515
;;;;;;;;;;;;;;;;
2;2018-03-04;17:36:25.953000;type1;training;train;1 3 4 - 1 - 1 2 - 1 3 - 2 3;1 3 4 - 1 - 1 2 - 1 2 3 - 2 3;0.8;0.6319520013;12;6;done;0;0;1 3 4;805.447
;;;;;;;;;;;;;;;;
2;2018-03-04;17:36:25.953000;type1;training;train;1 3 4 - 1 - 1 2 - 1 3 - 2 3;1 3 4 - 1 - 1 2 - 1 2 3 - 2 3;0.8;0.6319520013;12;6;done;1;1 3 4;1;364.578
;;;;;;;;;;;;;;;;
2;2018-03-04;17:36:25.953000;type1;training;train;1 3 4 - 1 - 1 2 - 1 3 - 2 3;1 3 4 - 1 - 1 2 - 1 2 3 - 2 3;0.8;0.6319520013;12;6;done;2;1;1 2;496.837
;;;;;;;;;;;;;;;;
2;2018-03-04;17:36:25.953000;type1;training;train;1 3 4 - 1 - 1 2 - 1 3 - 2 3;1 3 4 - 1 - 1 2 - 1 2 3 - 2 3;0.8;0.6319520013;12;6;done;3;1 2;1 2 3;317.51
;;;;;;;;;;;;;;;;
2;2018-03-04;17:36:25.953000;type1;training;train;1 3 4 - 1 - 1 2 - 1 3 - 2 3;1 3 4 - 1 - 1 2 - 1 2 3 - 2 3;0.8;0.6319520013;12;6;done;4;1 2 3;2 3;403.473
;;;;;;;;;;;;;;;;
2;2018-03-04;17:36:25.953000;type1;training;train;1 3 4 - 1 - 1 2 - 1 3 - 2 3;1 3 4 - 1 - 1 2 - 1 3 - 2 3;1;0.6127876639;13;7;done;0;0;1 3 4;854.483
;;;;;;;;;;;;;;;;
2;2018-03-04;17:36:25.953000;type1;training;train;1 3 4 - 1 - 1 2 - 1 3 - 2 3;1 3 4 - 1 - 1 2 - 1 3 - 2 3;1;0.6127876639;13;7;done;1;1 3 4;1;427.892
;;;;;;;;;;;;;;;;
2;2018-03-04;17:36:25.953000;type1;training;train;1 3 4 - 1 - 1 2 - 1 3 - 2 3;1 3 4 - 1 - 1 2 - 1 3 - 2 3;1;0.6127876639;13;7;done;2;1;1 2;370.885
;;;;;;;;;;;;;;;;
2;2018-03-04;17:36:25.953000;type1;training;train;1 3 4 - 1 - 1 2 - 1 3 - 2 3;1 3 4 - 1 - 1 2 - 1 3 - 2 3;1;0.6127876639;13;7;done;3;1 2;1 3;458.787
;;;;;;;;;;;;;;;;
2;2018-03-04;17:36:25.953000;type1;training;train;1 3 4 - 1 - 1 2 - 1 3 - 2 3;1 3 4 - 1 - 1 2 - 1 3 - 2 3;1;0.6127876639;13;7;done;4;1 3;2 3;374.321
;;;;;;;;;;;;;;;;
2;2018-03-04;17:36:25.953000;type1;training;train;1 3 4 - 1 - 1 2 - 1 3 - 2 3;1 3 4 - 1 - 1 2 - 1 3 - 2 3;1;0.5445164186;14;8;done;0;0;1 3 4;893.838
;;;;;;;;;;;;;;;;
2;2018-03-04;17:36:25.953000;type1;training;train;1 3 4 - 1 - 1 2 - 1 3 - 2 3;1 3 4 - 1 - 1 2 - 1 3 - 2 3;1;0.5445164186;14;8;done;1;1 3 4;1;374.976
;;;;;;;;;;;;;;;;
2;2018-03-04;17:36:25.953000;type1;training;train;1 3 4 - 1 - 1 2 - 1 3 - 2 3;1 3 4 - 1 - 1 2 - 1 3 - 2 3;1;0.5445164186;14;8;done;2;1;1 2;600.979
;;;;;;;;;;;;;;;;
2;2018-03-04;17:36:25.953000;type1;training;train;1 3 4 - 1 - 1 2 - 1 3 - 2 3;1 3 4 - 1 - 1 2 - 1 3 - 2 3;1;0.5445164186;14;8;done;3;1 2;1 3;440.302
;;;;;;;;;;;;;;;;
2;2018-03-04;17:36:25.953000;type1;training;train;1 3 4 - 1 - 1 2 - 1 3 - 2 3;1 3 4 - 1 - 1 2 - 1 3 - 2 3;1;0.5445164186;14;8;done;4;1 3;2 3;420.234
;;;;;;;;;;;;;;;;
2;2018-03-04;17:36:25.953000;type1;training;train;1 3 4 - 1 - 1 2 - 1 3 - 2 3;1 3 4 - 1 - 1 - 2 - 2 3;0.6;0.6531358171;15;8;done;0;0;1 3 4;1185.646
;;;;;;;;;;;;;;;;
2;2018-03-04;17:36:25.953000;type1;training;train;1 3 4 - 1 - 1 2 - 1 3 - 2 3;1 3 4 - 1 - 1 - 2 - 2 3;0.6;0.6531358171;15;8;done;1;1 3 4;1;694.541
;;;;;;;;;;;;;;;;
2;2018-03-04;17:36:25.953000;type1;training;train;1 3 4 - 1 - 1 2 - 1 3 - 2 3;1 3 4 - 1 - 1 - 2 - 2 3;0.6;0.6531358171;15;8;done;2;1;1;495.754
;;;;;;;;;;;;;;;;
2;2018-03-04;17:36:25.953000;type1;training;train;1 3 4 - 1 - 1 2 - 1 3 - 2 3;1 3 4 - 1 - 1 - 2 - 2 3;0.6;0.6531358171;15;8;done;3;1;2;20.979
;;;;;;;;;;;;;;;;
2;2018-03-04;17:36:25.953000;type1;training;train;1 3 4 - 1 - 1 2 - 1 3 - 2 3;1 3 4 - 1 - 1 - 2 - 2 3;0.6;0.6531358171;15;8;done;4;2;2 3;319.801
;;;;;;;;;;;;;;;;
2;2018-03-04;17:36:25.953000;type1;training;train;1 3 4 - 1 - 1 2 - 1 3 - 2 3;1 3 4 - 1 - 1 2 - 1 3 - 2 3;1;0.651680286;16;9;done;0;0;1 3 4;1197.824
;;;;;;;;;;;;;;;;
2;2018-03-04;17:36:25.953000;type1;training;train;1 3 4 - 1 - 1 2 - 1 3 - 2 3;1 3 4 - 1 - 1 2 - 1 3 - 2 3;1;0.651680286;16;9;done;1;1 3 4;1;359.55
;;;;;;;;;;;;;;;;
2;2018-03-04;17:36:25.953000;type1;training;train;1 3 4 - 1 - 1 2 - 1 3 - 2 3;1 3 4 - 1 - 1 2 - 1 3 - 2 3;1;0.651680286;16;9;done;2;1;1 2;443.839
;;;;;;;;;;;;;;;;
2;2018-03-04;17:36:25.953000;type1;training;train;1 3 4 - 1 - 1 2 - 1 3 - 2 3;1 3 4 - 1 - 1 2 - 1 3 - 2 3;1;0.651680286;16;9;done;3;1 2;1 3;389.703
;;;;;;;;;;;;;;;;
2;2018-03-04;17:36:25.953000;type1;training;train;1 3 4 - 1 - 1 2 - 1 3 - 2 3;1 3 4 - 1 - 1 2 - 1 3 - 2 3;1;0.651680286;16;9;done;4;1 3;2 3;341.402
;;;;;;;;;;;;;;;;
2;2018-03-04;17:36:25.953000;type1;training;train;1 3 4 - 1 - 1 2 - 1 3 - 2 3;1 3 4 - 1 - 1 2 - 1 3 - 2 3;1;0.5900731184;17;10;done;0;0;1 3 4;1320.074
;;;;;;;;;;;;;;;;
2;2018-03-04;17:36:25.953000;type1;training;train;1 3 4 - 1 - 1 2 - 1 3 - 2 3;1 3 4 - 1 - 1 2 - 1 3 - 2 3;1;0.5900731184;17;10;done;1;1 3 4;1;420.641
;;;;;;;;;;;;;;;;
2;2018-03-04;17:36:25.953000;type1;training;train;1 3 4 - 1 - 1 2 - 1 3 - 2 3;1 3 4 - 1 - 1 2 - 1 3 - 2 3;1;0.5900731184;17;10;done;2;1;1 2;584.386
;;;;;;;;;;;;;;;;
2;2018-03-04;17:36:25.953000;type1;training;train;1 3 4 - 1 - 1 2 - 1 3 - 2 3;1 3 4 - 1 - 1 2 - 1 3 - 2 3;1;0.5900731184;17;10;done;3;1 2;1 3;355.724
;;;;;;;;;;;;;;;;
2;2018-03-04;17:36:25.953000;type1;training;train;1 3 4 - 1 - 1 2 - 1 3 - 2 3;1 3 4 - 1 - 1 2 - 1 3 - 2 3;1;0.5900731184;17;10;done;4;1 3;2 3;333.954
;;;;;;;;;;;;;;;;
2;2018-03-04;17:36:25.953000;type1;training;train;1 3 4 - 1 - 1 2 - 1 3 - 2 3;4 - 1 3 - 1 - 1 - 3;0;0.6034487075;18;10;done;0;0;4;1044.983
;;;;;;;;;;;;;;;;
2;2018-03-04;17:36:25.953000;type1;training;train;1 3 4 - 1 - 1 2 - 1 3 - 2 3;4 - 1 3 - 1 - 1 - 3;0;0.6034487075;18;10;done;1;4;1 3;14.51
;;;;;;;;;;;;;;;;
2;2018-03-04;17:36:25.953000;type1;training;train;1 3 4 - 1 - 1 2 - 1 3 - 2 3;4 - 1 3 - 1 - 1 - 3;0;0.6034487075;18;10;done;2;1 3;1;831.105
;;;;;;;;;;;;;;;;
2;2018-03-04;17:36:25.953000;type1;training;train;1 3 4 - 1 - 1 2 - 1 3 - 2 3;4 - 1 3 - 1 - 1 - 3;0;0.6034487075;18;10;done;3;1;1;783.636
;;;;;;;;;;;;;;;;
2;2018-03-04;17:36:25.953000;type1;training;train;1 3 4 - 1 - 1 2 - 1 3 - 2 3;4 - 1 3 - 1 - 1 - 3;0;0.6034487075;18;10;done;4;1;3;27.891
;;;;;;;;;;;;;;;;
2;2018-03-04;17:36:25.953000;type1;training;train;1 3 4 - 1 - 1 2 - 1 3 - 2 3;4 - 1 3 - 1 1 2 - 1 3 - 2 3;0.4;527.3061227183;19;10;done;0;0;4;-199.876
;;;;;;;;;;;;;;;;
2;2018-03-04;17:36:25.953000;type1;training;train;1 3 4 - 1 - 1 2 - 1 3 - 2 3;4 - 1 3 - 1 1 2 - 1 3 - 2 3;0.4;527.3061227183;19;10;done;1;4;1 3;0.305
;;;;;;;;;;;;;;;;
2;2018-03-04;17:36:25.953000;type1;training;train;1 3 4 - 1 - 1 2 - 1 3 - 2 3;4 - 1 3 - 1 1 2 - 1 3 - 2 3;0.4;527.3061227183;19;10;done;2;1 3;1 1 2;0.668
;;;;;;;;;;;;;;;;
2;2018-03-04;17:36:25.953000;type1;training;train;1 3 4 - 1 - 1 2 - 1 3 - 2 3;4 - 1 3 - 1 1 2 - 1 3 - 2 3;0.4;527.3061227183;19;10;done;3;1 1 2;1 3;0.514
;;;;;;;;;;;;;;;;
2;2018-03-04;17:36:25.953000;type1;training;train;1 3 4 - 1 - 1 2 - 1 3 - 2 3;4 - 1 3 - 1 1 2 - 1 3 - 2 3;0.4;527.3061227183;19;10;done;4;1 3;2 3;0.409
;;;;;;;;;;;;;;;;
2;2018-03-04;17:36:25.953000;type1;training;train;1 3 4 - 1 - 1 2 - 1 3 - 2 3;4 - 1 3 - 1 1 2 - 1 3 - 2 3;0.4;723.8319256212;20;10;done;0;0;4;-199.968
;;;;;;;;;;;;;;;;
2;2018-03-04;17:36:25.953000;type1;training;train;1 3 4 - 1 - 1 2 - 1 3 - 2 3;4 - 1 3 - 1 1 2 - 1 3 - 2 3;0.4;723.8319256212;20;10;done;1;4;1 3;0.258
;;;;;;;;;;;;;;;;
2;2018-03-04;17:36:25.953000;type1;training;train;1 3 4 - 1 - 1 2 - 1 3 - 2 3;4 - 1 3 - 1 1 2 - 1 3 - 2 3;0.4;723.8319256212;20;10;done;2;1 3;1 1 2;0.495
;;;;;;;;;;;;;;;;
2;2018-03-04;17:36:25.953000;type1;training;train;1 3 4 - 1 - 1 2 - 1 3 - 2 3;4 - 1 3 - 1 1 2 - 1 3 - 2 3;0.4;723.8319256212;20;10;done;3;1 1 2;1 3;0.36
;;;;;;;;;;;;;;;;
2;2018-03-04;17:36:25.953000;type1;training;train;1 3 4 - 1 - 1 2 - 1 3 - 2 3;4 - 1 3 - 1 1 2 - 1 3 - 2 3;0.4;723.8319256212;20;10;done;4;1 3;2 3;0.269
;;;;;;;;;;;;;;;;
2;2018-03-04;17:36:25.953000;type1;training;train;1 3 4 - 1 - 1 2 - 1 3 - 2 3;1 3 4 - 1 - 1 2 - 1 3 - 2 3;1;0.4928693604;21;11;done;0;0;1 3 4;542.076
;;;;;;;;;;;;;;;;
2;2018-03-04;17:36:25.953000;type1;training;train;1 3 4 - 1 - 1 2 - 1 3 - 2 3;1 3 4 - 1 - 1 2 - 1 3 - 2 3;1;0.4928693604;21;11;done;1;1 3 4;1;371.58
;;;;;;;;;;;;;;;;
2;2018-03-04;17:36:25.953000;type1;training;train;1 3 4 - 1 - 1 2 - 1 3 - 2 3;1 3 4 - 1 - 1 2 - 1 3 - 2 3;1;0.4928693604;21;11;done;2;1;1 2;945.419
;;;;;;;;;;;;;;;;
2;2018-03-04;17:36:25.953000;type1;training;train;1 3 4 - 1 - 1 2 - 1 3 - 2 3;1 3 4 - 1 - 1 2 - 1 3 - 2 3;1;0.4928693604;21;11;done;3;1 2;1 3;393.983
;;;;;;;;;;;;;;;;
2;2018-03-04;17:36:25.953000;type1;training;train;1 3 4 - 1 - 1 2 - 1 3 - 2 3;1 3 4 - 1 - 1 2 - 1 3 - 2 3;1;0.4928693604;21;11;done;4;1 3;2 3;317.954
;;;;;;;;;;;;;;;;
2;2018-03-04;17:36:25.953000;type1;training;train;3 4 - 1 2 3 - 1 3 4 - 4 - 1 4;4 - 3 - 1 - 3 - 2;0;2.0326754321;1;1;done;0;0;4;3208.794
;;;;;;;;;;;;;;;;
2;2018-03-04;17:36:25.953000;type1;training;train;3 4 - 1 2 3 - 1 3 4 - 4 - 1 4;4 - 3 - 1 - 3 - 2;0;2.0326754321;1;1;done;1;4;3;15.528
;;;;;;;;;;;;;;;;
2;2018-03-04;17:36:25.953000;type1;training;train;3 4 - 1 2 3 - 1 3 4 - 4 - 1 4;4 - 3 - 1 - 3 - 2;0;2.0326754321;1;1;done;2;3;1;353.254
;;;;;;;;;;;;;;;;
2;2018-03-04;17:36:25.953000;type1;training;train;3 4 - 1 2 3 - 1 3 4 - 4 - 1 4;4 - 3 - 1 - 3 - 2;0;2.0326754321;1;1;done;3;1;3;22.715
;;;;;;;;;;;;;;;;
2;2018-03-04;17:36:25.953000;type1;training;train;3 4 - 1 2 3 - 1 3 4 - 4 - 1 4;4 - 3 - 1 - 3 - 2;0;2.0326754321;1;1;done;4;3;2;100.465
;;;;;;;;;;;;;;;;
2;2018-03-04;17:36:25.953000;type1;training;train;3 4 - 1 2 3 - 1 3 4 - 4 - 1 4;1 2 3 3 4 - 1 3 4 - 4 - 4 - 1;0.2;2.081431269;2;1;done;0;0;1 2 3 3 4;-199.541
;;;;;;;;;;;;;;;;
2;2018-03-04;17:36:25.953000;type1;training;train;3 4 - 1 2 3 - 1 3 4 - 4 - 1 4;1 2 3 3 4 - 1 3 4 - 4 - 4 - 1;0.2;2.081431269;2;1;done;1;1 2 3 3 4;1 3 4;0.856
;;;;;;;;;;;;;;;;
2;2018-03-04;17:36:25.953000;type1;training;train;3 4 - 1 2 3 - 1 3 4 - 4 - 1 4;1 2 3 3 4 - 1 3 4 - 4 - 4 - 1;0.2;2.081431269;2;1;done;2;1 3 4;4;93.338
;;;;;;;;;;;;;;;;
2;2018-03-04;17:36:25.953000;type1;training;train;3 4 - 1 2 3 - 1 3 4 - 4 - 1 4;1 2 3 3 4 - 1 3 4 - 4 - 4 - 1;0.2;2.081431269;2;1;done;3;4;4;377.16
;;;;;;;;;;;;;;;;
2;2018-03-04;17:36:25.953000;type1;training;train;3 4 - 1 2 3 - 1 3 4 - 4 - 1 4;1 2 3 3 4 - 1 3 4 - 4 - 4 - 1;0.2;2.081431269;2;1;done;4;4;1;9.084
;;;;;;;;;;;;;;;;
2;2018-03-04;17:36:25.953000;type1;training;train;3 4 - 1 2 3 - 1 3 4 - 4 - 1 4;3 4 - 1 2 3 - 1 3 4 - 4 - 1 4;1;0.4086609939;3;2;done;0;0;3 4;1542.901
;;;;;;;;;;;;;;;;
2;2018-03-04;17:36:25.953000;type1;training;train;3 4 - 1 2 3 - 1 3 4 - 4 - 1 4;3 4 - 1 2 3 - 1 3 4 - 4 - 1 4;1;0.4086609939;3;2;done;1;3 4;1 2 3;586.514
;;;;;;;;;;;;;;;;
2;2018-03-04;17:36:25.953000;type1;training;train;3 4 - 1 2 3 - 1 3 4 - 4 - 1 4;3 4 - 1 2 3 - 1 3 4 - 4 - 1 4;1;0.4086609939;3;2;done;2;1 2 3;1 3 4;828.148
;;;;;;;;;;;;;;;;
2;2018-03-04;17:36:25.953000;type1;training;train;3 4 - 1 2 3 - 1 3 4 - 4 - 1 4;3 4 - 1 2 3 - 1 3 4 - 4 - 1 4;1;0.4086609939;3;2;done;3;1 3 4;4;782.561
;;;;;;;;;;;;;;;;
2;2018-03-04;17:36:25.953000;type1;training;train;3 4 - 1 2 3 - 1 3 4 - 4 - 1 4;3 4 - 1 2 3 - 1 3 4 - 4 - 1 4;1;0.4086609939;3;2;done;4;4;1 4;249.793
;;;;;;;;;;;;;;;;
2;2018-03-04;17:36:25.953000;type1;training;train;3 4 - 1 2 3 - 1 3 4 - 4 - 1 4;3 4 - 1 2 3 - 4 - 4 - 1;0.6;0.3751189422;4;2;done;0;0;3 4;1098.779
;;;;;;;;;;;;;;;;
2;2018-03-04;17:36:25.953000;type1;training;train;3 4 - 1 2 3 - 1 3 4 - 4 - 1 4;3 4 - 1 2 3 - 4 - 4 - 1;0.6;0.3751189422;4;2;done;1;3 4;1 2 3;532.228
;;;;;;;;;;;;;;;;
2;2018-03-04;17:36:25.953000;type1;training;train;3 4 - 1 2 3 - 1 3 4 - 4 - 1 4;3 4 - 1 2 3 - 4 - 4 - 1;0.6;0.3751189422;4;2;done;2;1 2 3;4;1548.338
;;;;;;;;;;;;;;;;
2;2018-03-04;17:36:25.953000;type1;training;train;3 4 - 1 2 3 - 1 3 4 - 4 - 1 4;3 4 - 1 2 3 - 4 - 4 - 1;0.6;0.3751189422;4;2;done;3;4;4;555.803
;;;;;;;;;;;;;;;;
2;2018-03-04;17:36:25.953000;type1;training;train;3 4 - 1 2 3 - 1 3 4 - 4 - 1 4;3 4 - 1 2 3 - 4 - 4 - 1;0.6;0.3751189422;4;2;done;4;4;1;29.451
;;;;;;;;;;;;;;;;
2;2018-03-04;17:36:25.953000;type1;training;train;3 4 - 1 2 3 - 1 3 4 - 4 - 1 4;3 - 4;0;101.0823934747;5;2;done;0;0;3;1996.99
;;;;;;;;;;;;;;;;
2;2018-03-04;17:36:25.953000;type1;training;train;3 4 - 1 2 3 - 1 3 4 - 4 - 1 4;3 - 4;0;101.0823934747;5;2;done;1;3;4;9.893
;;;;;;;;;;;;;;;;
2;2018-03-04;17:36:25.953000;type1;training;train;3 4 - 1 2 3 - 1 3 4 - 4 - 1 4;3 4 - 1 2 3 - 1 3 4 - 4 - 1 4;1;0.4367501275;6;3;done;0;0;3 4;846.28
;;;;;;;;;;;;;;;;
2;2018-03-04;17:36:25.953000;type1;training;train;3 4 - 1 2 3 - 1 3 4 - 4 - 1 4;3 4 - 1 2 3 - 1 3 4 - 4 - 1 4;1;0.4367501275;6;3;done;1;3 4;1 2 3;640.411
;;;;;;;;;;;;;;;;
2;2018-03-04;17:36:25.953000;type1;training;train;3 4 - 1 2 3 - 1 3 4 - 4 - 1 4;3 4 - 1 2 3 - 1 3 4 - 4 - 1 4;1;0.4367501275;6;3;done;2;1 2 3;1 3 4;831.721
;;;;;;;;;;;;;;;;
2;2018-03-04;17:36:25.953000;type1;training;train;3 4 - 1 2 3 - 1 3 4 - 4 - 1 4;3 4 - 1 2 3 - 1 3 4 - 4 - 1 4;1;0.4367501275;6;3;done;3;1 3 4;4;572.45
;;;;;;;;;;;;;;;;
2;2018-03-04;17:36:25.953000;type1;training;train;3 4 - 1 2 3 - 1 3 4 - 4 - 1 4;3 4 - 1 2 3 - 1 3 4 - 4 - 1 4;1;0.4367501275;6;3;done;4;4;1 4;245.057
;;;;;;;;;;;;;;;;
2;2018-03-04;17:36:25.953000;type1;training;train;3 4 - 1 2 3 - 1 3 4 - 4 - 1 4;3 4 - 1 2 3 - 1 3 4 - 4 - 1 4;1;0.5063870118;7;4;done;0;0;3 4;1578.171
;;;;;;;;;;;;;;;;
2;2018-03-04;17:36:25.953000;type1;training;train;3 4 - 1 2 3 - 1 3 4 - 4 - 1 4;3 4 - 1 2 3 - 1 3 4 - 4 - 1 4;1;0.5063870118;7;4;done;1;3 4;1 2 3;774.829
;;;;;;;;;;;;;;;;
2;2018-03-04;17:36:25.953000;type1;training;train;3 4 - 1 2 3 - 1 3 4 - 4 - 1 4;3 4 - 1 2 3 - 1 3 4 - 4 - 1 4;1;0.5063870118;7;4;done;2;1 2 3;1 3 4;538.543
;;;;;;;;;;;;;;;;
2;2018-03-04;17:36:25.953000;type1;training;train;3 4 - 1 2 3 - 1 3 4 - 4 - 1 4;3 4 - 1 2 3 - 1 3 4 - 4 - 1 4;1;0.5063870118;7;4;done;3;1 3 4;4;452.092
;;;;;;;;;;;;;;;;
2;2018-03-04;17:36:25.953000;type1;training;train;3 4 - 1 2 3 - 1 3 4 - 4 - 1 4;3 4 - 1 2 3 - 1 3 4 - 4 - 1 4;1;0.5063870118;7;4;done;4;4;1 4;209.31
;;;;;;;;;;;;;;;;
2;2018-03-04;17:36:25.953000;type1;training;train;3 4 - 1 2 3 - 1 3 4 - 4 - 1 4;3 4 - 1 2 3 - 1 3 4 - 4 - 1 4;1;0.6001247555;8;5;done;0;0;3 4;1155.654
;;;;;;;;;;;;;;;;
2;2018-03-04;17:36:25.953000;type1;training;train;3 4 - 1 2 3 - 1 3 4 - 4 - 1 4;3 4 - 1 2 3 - 1 3 4 - 4 - 1 4;1;0.6001247555;8;5;done;1;3 4;1 2 3;434.051
;;;;;;;;;;;;;;;;
2;2018-03-04;17:36:25.953000;type1;training;train;3 4 - 1 2 3 - 1 3 4 - 4 - 1 4;3 4 - 1 2 3 - 1 3 4 - 4 - 1 4;1;0.6001247555;8;5;done;2;1 2 3;1 3 4;509.575
;;;;;;;;;;;;;;;;
2;2018-03-04;17:36:25.953000;type1;training;train;3 4 - 1 2 3 - 1 3 4 - 4 - 1 4;3 4 - 1 2 3 - 1 3 4 - 4 - 1 4;1;0.6001247555;8;5;done;3;1 3 4;4;481.547
;;;;;;;;;;;;;;;;
2;2018-03-04;17:36:25.953000;type1;training;train;3 4 - 1 2 3 - 1 3 4 - 4 - 1 4;3 4 - 1 2 3 - 1 3 4 - 4 - 1 4;1;0.6001247555;8;5;done;4;4;1 4;241.148
;;;;;;;;;;;;;;;;
2;2018-03-04;17:36:25.953000;type1;training;train;3 4 - 1 2 3 - 1 3 4 - 4 - 1 4;3 4 - 1 2 3 - 1 3 4 - 4 - 1 3 4;0.8;0.6366519793;9;5;done;0;0;3 4;1107.387
;;;;;;;;;;;;;;;;
2;2018-03-04;17:36:25.953000;type1;training;train;3 4 - 1 2 3 - 1 3 4 - 4 - 1 4;3 4 - 1 2 3 - 1 3 4 - 4 - 1 3 4;0.8;0.6366519793;9;5;done;1;3 4;1 2 3;394.471
;;;;;;;;;;;;;;;;
2;2018-03-04;17:36:25.953000;type1;training;train;3 4 - 1 2 3 - 1 3 4 - 4 - 1 4;3 4 - 1 2 3 - 1 3 4 - 4 - 1 3 4;0.8;0.6366519793;9;5;done;2;1 2 3;1 3 4;491.832
;;;;;;;;;;;;;;;;
2;2018-03-04;17:36:25.953000;type1;training;train;3 4 - 1 2 3 - 1 3 4 - 4 - 1 4;3 4 - 1 2 3 - 1 3 4 - 4 - 1 3 4;0.8;0.6366519793;9;5;done;3;1 3 4;4;425.605
;;;;;;;;;;;;;;;;
2;2018-03-04;17:36:25.953000;type1;training;train;3 4 - 1 2 3 - 1 3 4 - 4 - 1 4;3 4 - 1 2 3 - 1 3 4 - 4 - 1 3 4;0.8;0.6366519793;9;5;done;4;4;1 3 4;258.809
;;;;;;;;;;;;;;;;
2;2018-03-04;17:36:25.953000;type1;training;train;3 4 - 1 2 3 - 1 3 4 - 4 - 1 4;3 4 - 1 - 2 3 - 4 - 1;0.4;1.0011154954;10;5;done;0;0;3 4;627.633
;;;;;;;;;;;;;;;;
2;2018-03-04;17:36:25.953000;type1;training;train;3 4 - 1 2 3 - 1 3 4 - 4 - 1 4;3 4 - 1 - 2 3 - 4 - 1;0.4;1.0011154954;10;5;done;1;3 4;1;464.932
;;;;;;;;;;;;;;;;
2;2018-03-04;17:36:25.953000;type1;training;train;3 4 - 1 2 3 - 1 3 4 - 4 - 1 4;3 4 - 1 - 2 3 - 4 - 1;0.4;1.0011154954;10;5;done;2;1;2 3;14.777
;;;;;;;;;;;;;;;;
2;2018-03-04;17:36:25.953000;type1;training;train;3 4 - 1 2 3 - 1 3 4 - 4 - 1 4;3 4 - 1 - 2 3 - 4 - 1;0.4;1.0011154954;10;5;done;3;2 3;4;508.981
;;;;;;;;;;;;;;;;
2;2018-03-04;17:36:25.953000;type1;training;train;3 4 - 1 2 3 - 1 3 4 - 4 - 1 4;3 4 - 1 - 2 3 - 4 - 1;0.4;1.0011154954;10;5;done;4;4;1;10.195
;;;;;;;;;;;;;;;;
2;2018-03-04;17:36:25.953000;type1;training;train;3 4 - 1 2 3 - 1 3 4 - 4 - 1 4;3 4 - 1 2 3 - 1 3 4 - 4 - 1 4;1;0.5665582133;11;6;done;0;0;3 4;658.263
;;;;;;;;;;;;;;;;
2;2018-03-04;17:36:25.953000;type1;training;train;3 4 - 1 2 3 - 1 3 4 - 4 - 1 4;3 4 - 1 2 3 - 1 3 4 - 4 - 1 4;1;0.5665582133;11;6;done;1;3 4;1 2 3;551.774
;;;;;;;;;;;;;;;;
2;2018-03-04;17:36:25.953000;type1;training;train;3 4 - 1 2 3 - 1 3 4 - 4 - 1 4;3 4 - 1 2 3 - 1 3 4 - 4 - 1 4;1;0.5665582133;11;6;done;2;1 2 3;1 3 4;542.696
;;;;;;;;;;;;;;;;
2;2018-03-04;17:36:25.953000;type1;training;train;3 4 - 1 2 3 - 1 3 4 - 4 - 1 4;3 4 - 1 2 3 - 1 3 4 - 4 - 1 4;1;0.5665582133;11;6;done;3;1 3 4;4;395.613
;;;;;;;;;;;;;;;;
2;2018-03-04;17:36:25.953000;type1;training;train;3 4 - 1 2 3 - 1 3 4 - 4 - 1 4;3 4 - 1 2 3 - 1 3 4 - 4 - 1 4;1;0.5665582133;11;6;done;4;4;1 4;274.96
;;;;;;;;;;;;;;;;
2;2018-03-04;17:36:25.953000;type1;training;train;3 4 - 1 2 3 - 1 3 4 - 4 - 1 4;3 4 - 1 2 3 - 1 3 4 - 4 - 1 4;1;0.5923528655;12;7;done;0;0;3 4;845.59
;;;;;;;;;;;;;;;;
2;2018-03-04;17:36:25.953000;type1;training;train;3 4 - 1 2 3 - 1 3 4 - 4 - 1 4;3 4 - 1 2 3 - 1 3 4 - 4 - 1 4;1;0.5923528655;12;7;done;1;3 4;1 2 3;467.438
;;;;;;;;;;;;;;;;
2;2018-03-04;17:36:25.953000;type1;training;train;3 4 - 1 2 3 - 1 3 4 - 4 - 1 4;3 4 - 1 2 3 - 1 3 4 - 4 - 1 4;1;0.5923528655;12;7;done;2;1 2 3;1 3 4;561.302
;;;;;;;;;;;;;;;;
2;2018-03-04;17:36:25.953000;type1;training;train;3 4 - 1 2 3 - 1 3 4 - 4 - 1 4;3 4 - 1 2 3 - 1 3 4 - 4 - 1 4;1;0.5923528655;12;7;done;3;1 3 4;4;421.797
;;;;;;;;;;;;;;;;
2;2018-03-04;17:36:25.953000;type1;training;train;3 4 - 1 2 3 - 1 3 4 - 4 - 1 4;3 4 - 1 2 3 - 1 3 4 - 4 - 1 4;1;0.5923528655;12;7;done;4;4;1 4;237.646
;;;;;;;;;;;;;;;;
2;2018-03-04;17:36:25.953000;type1;training;train;3 4 - 1 2 3 - 1 3 4 - 4 - 1 4;3 4 - 1 2 3 - 1 3 4 - 3 4 - 1 2 4;0.6;0.5259340132;13;7;done;0;0;3 4;813.536
;;;;;;;;;;;;;;;;
2;2018-03-04;17:36:25.953000;type1;training;train;3 4 - 1 2 3 - 1 3 4 - 4 - 1 4;3 4 - 1 2 3 - 1 3 4 - 3 4 - 1 2 4;0.6;0.5259340132;13;7;done;1;3 4;1 2 3;389.988
;;;;;;;;;;;;;;;;
2;2018-03-04;17:36:25.953000;type1;training;train;3 4 - 1 2 3 - 1 3 4 - 4 - 1 4;3 4 - 1 2 3 - 1 3 4 - 3 4 - 1 2 4;0.6;0.5259340132;13;7;done;2;1 2 3;1 3 4;451.231
;;;;;;;;;;;;;;;;
2;2018-03-04;17:36:25.953000;type1;training;train;3 4 - 1 2 3 - 1 3 4 - 4 - 1 4;3 4 - 1 2 3 - 1 3 4 - 3 4 - 1 2 4;0.6;0.5259340132;13;7;done;3;1 3 4;3 4;489.748
;;;;;;;;;;;;;;;;
2;2018-03-04;17:36:25.953000;type1;training;train;3 4 - 1 2 3 - 1 3 4 - 4 - 1 4;3 4 - 1 2 3 - 1 3 4 - 3 4 - 1 2 4;0.6;0.5259340132;13;7;done;4;3 4;1 2 4;570.412
;;;;;;;;;;;;;;;;
2;2018-03-04;17:36:25.953000;type1;training;train;3 4 - 1 2 3 - 1 3 4 - 4 - 1 4;1 1 1 2 3 3 3 4 4 4 4 - 3 4 - 1 2 3 - 1 3 4 - 1 4 4 4;0;0.2600741151;14;7;done;0;0;1 1 1 2 3 3 3 4 4 4 4;-194.466
;;;;;;;;;;;;;;;;
2;2018-03-04;17:36:25.953000;type1;training;train;3 4 - 1 2 3 - 1 3 4 - 4 - 1 4;1 1 1 2 3 3 3 4 4 4 4 - 3 4 - 1 2 3 - 1 3 4 - 1 4 4 4;0;0.2600741151;14;7;done;1;1 1 1 2 3 3 3 4 4 4 4;3 4;1839.776
;;;;;;;;;;;;;;;;
2;2018-03-04;17:36:25.953000;type1;training;train;3 4 - 1 2 3 - 1 3 4 - 4 - 1 4;1 1 1 2 3 3 3 4 4 4 4 - 3 4 - 1 2 3 - 1 3 4 - 1 4 4 4;0;0.2600741151;14;7;done;2;3 4;1 2 3;567.381
;;;;;;;;;;;;;;;;
2;2018-03-04;17:36:25.953000;type1;training;train;3 4 - 1 2 3 - 1 3 4 - 4 - 1 4;1 1 1 2 3 3 3 4 4 4 4 - 3 4 - 1 2 3 - 1 3 4 - 1 4 4 4;0;0.2600741151;14;7;done;3;1 2 3;1 3 4;798.693
;;;;;;;;;;;;;;;;
2;2018-03-04;17:36:25.953000;type1;training;train;3 4 - 1 2 3 - 1 3 4 - 4 - 1 4;1 1 1 2 3 3 3 4 4 4 4 - 3 4 - 1 2 3 - 1 3 4 - 1 4 4 4;0;0.2600741151;14;7;done;4;1 3 4;1 4 4 4;639.208
;;;;;;;;;;;;;;;;
2;2018-03-04;17:36:25.953000;type1;training;train;3 4 - 1 2 3 - 1 3 4 - 4 - 1 4;3 4 - 1 2 3 - 1 3 4 - 4 - 1 4;1;0.6900264905;15;8;done;0;0;3 4;1353.572
;;;;;;;;;;;;;;;;
2;2018-03-04;17:36:25.953000;type1;training;train;3 4 - 1 2 3 - 1 3 4 - 4 - 1 4;3 4 - 1 2 3 - 1 3 4 - 4 - 1 4;1;0.6900264905;15;8;done;1;3 4;1 2 3;370.088
;;;;;;;;;;;;;;;;
2;2018-03-04;17:36:25.953000;type1;training;train;3 4 - 1 2 3 - 1 3 4 - 4 - 1 4;3 4 - 1 2 3 - 1 3 4 - 4 - 1 4;1;0.6900264905;15;8;done;2;1 2 3;1 3 4;509.56
;;;;;;;;;;;;;;;;
2;2018-03-04;17:36:25.953000;type1;training;train;3 4 - 1 2 3 - 1 3 4 - 4 - 1 4;3 4 - 1 2 3 - 1 3 4 - 4 - 1 4;1;0.6900264905;15;8;done;3;1 3 4;4;360.207
;;;;;;;;;;;;;;;;
2;2018-03-04;17:36:25.953000;type1;training;train;3 4 - 1 2 3 - 1 3 4 - 4 - 1 4;3 4 - 1 2 3 - 1 3 4 - 4 - 1 4;1;0.6900264905;15;8;done;4;4;1 4;209.364
;;;;;;;;;;;;;;;;
2;2018-03-04;17:36:25.953000;type1;training;train;3 4 - 1 2 3 - 1 3 4 - 4 - 1 4;3 4 - 1 2 3 - 1 3 4 - 4 - 1 4;1;0.6835289888;16;9;done;0;0;3 4;938.604
;;;;;;;;;;;;;;;;
2;2018-03-04;17:36:25.953000;type1;training;train;3 4 - 1 2 3 - 1 3 4 - 4 - 1 4;3 4 - 1 2 3 - 1 3 4 - 4 - 1 4;1;0.6835289888;16;9;done;1;3 4;1 2 3;376.673
;;;;;;;;;;;;;;;;
2;2018-03-04;17:36:25.953000;type1;training;train;3 4 - 1 2 3 - 1 3 4 - 4 - 1 4;3 4 - 1 2 3 - 1 3 4 - 4 - 1 4;1;0.6835289888;16;9;done;2;1 2 3;1 3 4;464.977
;;;;;;;;;;;;;;;;
2;2018-03-04;17:36:25.953000;type1;training;train;3 4 - 1 2 3 - 1 3 4 - 4 - 1 4;3 4 - 1 2 3 - 1 3 4 - 4 - 1 4;1;0.6835289888;16;9;done;3;1 3 4;4;397.238
;;;;;;;;;;;;;;;;
2;2018-03-04;17:36:25.953000;type1;training;train;3 4 - 1 2 3 - 1 3 4 - 4 - 1 4;3 4 - 1 2 3 - 1 3 4 - 4 - 1 4;1;0.6835289888;16;9;done;4;4;1 4;224.108
;;;;;;;;;;;;;;;;
2;2018-03-04;17:36:25.953000;type1;training;train;3 4 - 1 2 3 - 1 3 4 - 4 - 1 4;3 4 - 1 2 3 - 1 3 4 - 4 - 1 4;1;0.6612960882;17;10;done;0;0;3 4;762.184
;;;;;;;;;;;;;;;;
2;2018-03-04;17:36:25.953000;type1;training;train;3 4 - 1 2 3 - 1 3 4 - 4 - 1 4;3 4 - 1 2 3 - 1 3 4 - 4 - 1 4;1;0.6612960882;17;10;done;1;3 4;1 2 3;415.888
;;;;;;;;;;;;;;;;
2;2018-03-04;17:36:25.953000;type1;training;train;3 4 - 1 2 3 - 1 3 4 - 4 - 1 4;3 4 - 1 2 3 - 1 3 4 - 4 - 1 4;1;0.6612960882;17;10;done;2;1 2 3;1 3 4;437.853
;;;;;;;;;;;;;;;;
2;2018-03-04;17:36:25.953000;type1;training;train;3 4 - 1 2 3 - 1 3 4 - 4 - 1 4;3 4 - 1 2 3 - 1 3 4 - 4 - 1 4;1;0.6612960882;17;10;done;3;1 3 4;4;463.578
;;;;;;;;;;;;;;;;
2;2018-03-04;17:36:25.953000;type1;training;train;3 4 - 1 2 3 - 1 3 4 - 4 - 1 4;3 4 - 1 2 3 - 1 3 4 - 4 - 1 4;1;0.6612960882;17;10;done;4;4;1 4;194.862
;;;;;;;;;;;;;;;;
2;2018-03-04;17:36:25.953000;type1;training;train;3 4 - 1 2 3 - 1 3 4 - 4 - 1 4;3 4 - 1 2 3 - 1 3 4 - 4 - 1 4;1;0.5881720111;18;11;done;0;0;3 4;1049.694
;;;;;;;;;;;;;;;;
2;2018-03-04;17:36:25.953000;type1;training;train;3 4 - 1 2 3 - 1 3 4 - 4 - 1 4;3 4 - 1 2 3 - 1 3 4 - 4 - 1 4;1;0.5881720111;18;11;done;1;3 4;1 2 3;300.84
;;;;;;;;;;;;;;;;
2;2018-03-04;17:36:25.953000;type1;training;train;3 4 - 1 2 3 - 1 3 4 - 4 - 1 4;3 4 - 1 2 3 - 1 3 4 - 4 - 1 4;1;0.5881720111;18;11;done;2;1 2 3;1 3 4;887.023
;;;;;;;;;;;;;;;;
2;2018-03-04;17:36:25.953000;type1;training;train;3 4 - 1 2 3 - 1 3 4 - 4 - 1 4;3 4 - 1 2 3 - 1 3 4 - 4 - 1 4;1;0.5881720111;18;11;done;3;1 3 4;4;320.2
;;;;;;;;;;;;;;;;
2;2018-03-04;17:36:25.953000;type1;training;train;3 4 - 1 2 3 - 1 3 4 - 4 - 1 4;3 4 - 1 2 3 - 1 3 4 - 4 - 1 4;1;0.5881720111;18;11;done;4;4;1 4;192.119
;;;;;;;;;;;;;;;;
3;2018-03-05;10:20:53.657000;type1;training;train;1 3 4 - 1 - 1 2 - 1 3 - 2 3;1 3 4 - 1 - 1 2 - 1 3 - 2 3;1;0.4452748252;1;2;done;0;0;1 3 4;1640.866
;;;;;;;;;;;;;;;;
3;2018-03-05;10:20:53.657000;type1;training;train;1 3 4 - 1 - 1 2 - 1 3 - 2 3;1 3 4 - 1 - 1 2 - 1 3 - 2 3;1;0.4452748252;1;2;done;1;1 3 4;1;615.308
;;;;;;;;;;;;;;;;
3;2018-03-05;10:20:53.657000;type1;training;train;1 3 4 - 1 - 1 2 - 1 3 - 2 3;1 3 4 - 1 - 1 2 - 1 3 - 2 3;1;0.4452748252;1;2;done;2;1;1 2;554.103
;;;;;;;;;;;;;;;;
3;2018-03-05;10:20:53.657000;type1;training;train;1 3 4 - 1 - 1 2 - 1 3 - 2 3;1 3 4 - 1 - 1 2 - 1 3 - 2 3;1;0.4452748252;1;2;done;3;1 2;1 3;516.53
;;;;;;;;;;;;;;;;
3;2018-03-05;10:20:53.657000;type1;training;train;1 3 4 - 1 - 1 2 - 1 3 - 2 3;1 3 4 - 1 - 1 2 - 1 3 - 2 3;1;0.4452748252;1;2;done;4;1 3;2 3;559.863
;;;;;;;;;;;;;;;;
3;2018-03-05;10:20:53.657000;type1;training;train;1 3 4 - 1 - 1 2 - 1 3 - 2 3;1 3 4 - 1 - 1 2 - 1 3 - 2 3;1;0.5063301765;2;3;done;0;0;1 3 4;1173.213
;;;;;;;;;;;;;;;;
3;2018-03-05;10:20:53.657000;type1;training;train;1 3 4 - 1 - 1 2 - 1 3 - 2 3;1 3 4 - 1 - 1 2 - 1 3 - 2 3;1;0.5063301765;2;3;done;1;1 3 4;1;540.656
;;;;;;;;;;;;;;;;
3;2018-03-05;10:20:53.657000;type1;training;train;1 3 4 - 1 - 1 2 - 1 3 - 2 3;1 3 4 - 1 - 1 2 - 1 3 - 2 3;1;0.5063301765;2;3;done;2;1;1 2;574.772
;;;;;;;;;;;;;;;;
3;2018-03-05;10:20:53.657000;type1;training;train;1 3 4 - 1 - 1 2 - 1 3 - 2 3;1 3 4 - 1 - 1 2 - 1 3 - 2 3;1;0.5063301765;2;3;done;3;1 2;1 3;425.948
;;;;;;;;;;;;;;;;
3;2018-03-05;10:20:53.657000;type1;training;train;1 3 4 - 1 - 1 2 - 1 3 - 2 3;1 3 4 - 1 - 1 2 - 1 3 - 2 3;1;0.5063301765;2;3;done;4;1 3;2 3;433.62
;;;;;;;;;;;;;;;;
3;2018-03-05;10:20:53.657000;type1;training;train;1 3 4 - 1 - 1 2 - 1 3 - 2 3;1 3 4 - 1 - 1 2 - 1 3 - 2 3;1;0.5777808271;3;4;done;0;0;1 3 4;671.823
;;;;;;;;;;;;;;;;
3;2018-03-05;10:20:53.657000;type1;training;train;1 3 4 - 1 - 1 2 - 1 3 - 2 3;1 3 4 - 1 - 1 2 - 1 3 - 2 3;1;0.5777808271;3;4;done;1;1 3 4;1;362.198
;;;;;;;;;;;;;;;;
3;2018-03-05;10:20:53.657000;type1;training;train;1 3 4 - 1 - 1 2 - 1 3 - 2 3;1 3 4 - 1 - 1 2 - 1 3 - 2 3;1;0.5777808271;3;4;done;2;1;1 2;605.182
;;;;;;;;;;;;;;;;
3;2018-03-05;10:20:53.657000;type1;training;train;1 3 4 - 1 - 1 2 - 1 3 - 2 3;1 3 4 - 1 - 1 2 - 1 3 - 2 3;1;0.5777808271;3;4;done;3;1 2;1 3;354.173
;;;;;;;;;;;;;;;;
3;2018-03-05;10:20:53.657000;type1;training;train;1 3 4 - 1 - 1 2 - 1 3 - 2 3;1 3 4 - 1 - 1 2 - 1 3 - 2 3;1;0.5777808271;3;4;done;4;1 3;2 3;409.207
;;;;;;;;;;;;;;;;
3;2018-03-05;10:20:53.657000;type1;training;train;1 3 4 - 1 - 1 2 - 1 3 - 2 3;1 3 4 - 1 - 1 2 - 1 3 - 2 3;1;0.6620317947;4;5;done;0;0;1 3 4;1148.897
;;;;;;;;;;;;;;;;
3;2018-03-05;10:20:53.657000;type1;training;train;1 3 4 - 1 - 1 2 - 1 3 - 2 3;1 3 4 - 1 - 1 2 - 1 3 - 2 3;1;0.6620317947;4;5;done;1;1 3 4;1;362.813
;;;;;;;;;;;;;;;;
3;2018-03-05;10:20:53.657000;type1;training;train;1 3 4 - 1 - 1 2 - 1 3 - 2 3;1 3 4 - 1 - 1 2 - 1 3 - 2 3;1;0.6620317947;4;5;done;2;1;1 2;417.181
;;;;;;;;;;;;;;;;
3;2018-03-05;10:20:53.657000;type1;training;train;1 3 4 - 1 - 1 2 - 1 3 - 2 3;1 3 4 - 1 - 1 2 - 1 3 - 2 3;1;0.6620317947;4;5;done;3;1 2;1 3;382.09
;;;;;;;;;;;;;;;;
3;2018-03-05;10:20:53.657000;type1;training;train;1 3 4 - 1 - 1 2 - 1 3 - 2 3;1 3 4 - 1 - 1 2 - 1 3 - 2 3;1;0.6620317947;4;5;done;4;1 3;2 3;348.419
;;;;;;;;;;;;;;;;
3;2018-03-05;10:20:53.657000;type1;training;train;1 3 4 - 1 - 1 2 - 1 3 - 2 3;4 - 1 - 1 - 1 - 3;0.2;1.3782484047;5;5;done;0;0;4;734.821
;;;;;;;;;;;;;;;;
3;2018-03-05;10:20:53.657000;type1;training;train;1 3 4 - 1 - 1 2 - 1 3 - 2 3;4 - 1 - 1 - 1 - 3;0.2;1.3782484047;5;5;done;1;4;1;19.034
;;;;;;;;;;;;;;;;
3;2018-03-05;10:20:53.657000;type1;training;train;1 3 4 - 1 - 1 2 - 1 3 - 2 3;4 - 1 - 1 - 1 - 3;0.2;1.3782484047;5;5;done;2;1;1;318.259
;;;;;;;;;;;;;;;;
3;2018-03-05;10:20:53.657000;type1;training;train;1 3 4 - 1 - 1 2 - 1 3 - 2 3;4 - 1 - 1 - 1 - 3;0.2;1.3782484047;5;5;done;3;1;1;350.995
;;;;;;;;;;;;;;;;
3;2018-03-05;10:20:53.657000;type1;training;train;1 3 4 - 1 - 1 2 - 1 3 - 2 3;4 - 1 - 1 - 1 - 3;0.2;1.3782484047;5;5;done;4;1;3;37.27
;;;;;;;;;;;;;;;;
3;2018-03-05;10:20:53.657000;type1;training;train;1 3 4 - 1 - 1 2 - 1 3 - 2 3;3 4 - 1 1 2 - 1 2 3 3 - 1 - 4;0;0.5092973587;6;5;done;0;0;3 4;-199.849
;;;;;;;;;;;;;;;;
3;2018-03-05;10:20:53.657000;type1;training;train;1 3 4 - 1 - 1 2 - 1 3 - 2 3;3 4 - 1 1 2 - 1 2 3 3 - 1 - 4;0;0.5092973587;6;5;done;1;3 4;1 1 2;2.087
;;;;;;;;;;;;;;;;
3;2018-03-05;10:20:53.657000;type1;training;train;1 3 4 - 1 - 1 2 - 1 3 - 2 3;3 4 - 1 1 2 - 1 2 3 3 - 1 - 4;0;0.5092973587;6;5;done;2;1 1 2;1 2 3 3;2.845
;;;;;;;;;;;;;;;;
3;2018-03-05;10:20:53.657000;type1;training;train;1 3 4 - 1 - 1 2 - 1 3 - 2 3;3 4 - 1 1 2 - 1 2 3 3 - 1 - 4;0;0.5092973587;6;5;done;3;1 2 3 3;1;1947.536
;;;;;;;;;;;;;;;;
3;2018-03-05;10:20:53.657000;type1;training;train;1 3 4 - 1 - 1 2 - 1 3 - 2 3;3 4 - 1 1 2 - 1 2 3 3 - 1 - 4;0;0.5092973587;6;5;done;4;1;4;11.022
;;;;;;;;;;;;;;;;
3;2018-03-05;10:20:53.657000;type1;training;train;1 3 4 - 1 - 1 2 - 1 3 - 2 3;1 3 4 - 1 - 1 2 - 1 3 - 2 3;1;0.6572379406;7;6;done;0;0;1 3 4;1184.447
;;;;;;;;;;;;;;;;
3;2018-03-05;10:20:53.657000;type1;training;train;1 3 4 - 1 - 1 2 - 1 3 - 2 3;1 3 4 - 1 - 1 2 - 1 3 - 2 3;1;0.6572379406;7;6;done;1;1 3 4;1;349.431
;;;;;;;;;;;;;;;;
3;2018-03-05;10:20:53.657000;type1;training;train;1 3 4 - 1 - 1 2 - 1 3 - 2 3;1 3 4 - 1 - 1 2 - 1 3 - 2 3;1;0.6572379406;7;6;done;2;1;1 2;503.709
;;;;;;;;;;;;;;;;
3;2018-03-05;10:20:53.657000;type1;training;train;1 3 4 - 1 - 1 2 - 1 3 - 2 3;1 3 4 - 1 - 1 2 - 1 3 - 2 3;1;0.6572379406;7;6;done;3;1 2;1 3;351.672
;;;;;;;;;;;;;;;;
3;2018-03-05;10:20:53.657000;type1;training;train;1 3 4 - 1 - 1 2 - 1 3 - 2 3;1 3 4 - 1 - 1 2 - 1 3 - 2 3;1;0.6572379406;7;6;done;4;1 3;2 3;316.707
;;;;;;;;;;;;;;;;
3;2018-03-05;10:20:53.657000;type1;training;train;1 3 4 - 1 - 1 2 - 1 3 - 2 3;1 3 4 - 1 - 1 2 - 1 3 - 2 3;1;0.7612545075;8;7;done;0;0;1 3 4;1267.871
;;;;;;;;;;;;;;;;
3;2018-03-05;10:20:53.657000;type1;training;train;1 3 4 - 1 - 1 2 - 1 3 - 2 3;1 3 4 - 1 - 1 2 - 1 3 - 2 3;1;0.7612545075;8;7;done;1;1 3 4;1;339.555
;;;;;;;;;;;;;;;;
3;2018-03-05;10:20:53.657000;type1;training;train;1 3 4 - 1 - 1 2 - 1 3 - 2 3;1 3 4 - 1 - 1 2 - 1 3 - 2 3;1;0.7612545075;8;7;done;2;1;1 2;335.587
;;;;;;;;;;;;;;;;
3;2018-03-05;10:20:53.657000;type1;training;train;1 3 4 - 1 - 1 2 - 1 3 - 2 3;1 3 4 - 1 - 1 2 - 1 3 - 2 3;1;0.7612545075;8;7;done;3;1 2;1 3;323.828
;;;;;;;;;;;;;;;;
3;2018-03-05;10:20:53.657000;type1;training;train;1 3 4 - 1 - 1 2 - 1 3 - 2 3;1 3 4 - 1 - 1 2 - 1 3 - 2 3;1;0.7612545075;8;7;done;4;1 3;2 3;314.652
;;;;;;;;;;;;;;;;
3;2018-03-05;10:20:53.657000;type1;training;train;1 3 4 - 1 - 1 2 - 1 3 - 2 3;3 4 - 1 - 1 2 - 1 3 - 2 3;0.8;0.5811086308;9;7;done;0;0;3 4;1264.358
;;;;;;;;;;;;;;;;
3;2018-03-05;10:20:53.657000;type1;training;train;1 3 4 - 1 - 1 2 - 1 3 - 2 3;3 4 - 1 - 1 2 - 1 3 - 2 3;0.8;0.5811086308;9;7;done;1;3 4;1;337.856
;;;;;;;;;;;;;;;;
3;2018-03-05;10:20:53.657000;type1;training;train;1 3 4 - 1 - 1 2 - 1 3 - 2 3;3 4 - 1 - 1 2 - 1 3 - 2 3;0.8;0.5811086308;9;7;done;2;1;1 2;590.941
;;;;;;;;;;;;;;;;
3;2018-03-05;10:20:53.657000;type1;training;train;1 3 4 - 1 - 1 2 - 1 3 - 2 3;3 4 - 1 - 1 2 - 1 3 - 2 3;0.8;0.5811086308;9;7;done;3;1 2;1 3;340.452
;;;;;;;;;;;;;;;;
3;2018-03-05;10:20:53.657000;type1;training;train;1 3 4 - 1 - 1 2 - 1 3 - 2 3;3 4 - 1 - 1 2 - 1 3 - 2 3;0.8;0.5811086308;9;7;done;4;1 3;2 3;451.6
;;;;;;;;;;;;;;;;
3;2018-03-05;10:20:53.657000;type1;training;train;1 3 4 - 1 - 1 2 - 1 3 - 2 3;3 4 - 1 - 1 2 - 2 3 - 2 3;0.6;0.4875403341;10;7;done;0;0;3 4;754.853
;;;;;;;;;;;;;;;;
3;2018-03-05;10:20:53.657000;type1;training;train;1 3 4 - 1 - 1 2 - 1 3 - 2 3;3 4 - 1 - 1 2 - 2 3 - 2 3;0.6;0.4875403341;10;7;done;1;3 4;1;357.418
;;;;;;;;;;;;;;;;
3;2018-03-05;10:20:53.657000;type1;training;train;1 3 4 - 1 - 1 2 - 1 3 - 2 3;3 4 - 1 - 1 2 - 2 3 - 2 3;0.6;0.4875403341;10;7;done;2;1;1 2;611.536
;;;;;;;;;;;;;;;;
3;2018-03-05;10:20:53.657000;type1;training;train;1 3 4 - 1 - 1 2 - 1 3 - 2 3;3 4 - 1 - 1 2 - 2 3 - 2 3;0.6;0.4875403341;10;7;done;3;1 2;2 3;385.677
;;;;;;;;;;;;;;;;
3;2018-03-05;10:20:53.657000;type1;training;train;1 3 4 - 1 - 1 2 - 1 3 - 2 3;3 4 - 1 - 1 2 - 2 3 - 2 3;0.6;0.4875403341;10;7;done;4;2 3;2 3;696.481
;;;;;;;;;;;;;;;;
3;2018-03-05;10:20:53.657000;type1;training;train;1 3 4 - 1 - 1 2 - 1 3 - 2 3;1 3 4 - 1 - 1 2 - 1 3 - 2 3;1;0.6572868669;11;8;done;0;0;1 3 4;722.14
;;;;;;;;;;;;;;;;
3;2018-03-05;10:20:53.657000;type1;training;train;1 3 4 - 1 - 1 2 - 1 3 - 2 3;1 3 4 - 1 - 1 2 - 1 3 - 2 3;1;0.6572868669;11;8;done;1;1 3 4;1;376.307
;;;;;;;;;;;;;;;;
3;2018-03-05;10:20:53.657000;type1;training;train;1 3 4 - 1 - 1 2 - 1 3 - 2 3;1 3 4 - 1 - 1 2 - 1 3 - 2 3;1;0.6572868669;11;8;done;2;1;1 2;408.278
;;;;;;;;;;;;;;;;
3;2018-03-05;10:20:53.657000;type1;training;train;1 3 4 - 1 - 1 2 - 1 3 - 2 3;1 3 4 - 1 - 1 2 - 1 3 - 2 3;1;0.6572868669;11;8;done;3;1 2;1 3;411.295
;;;;;;;;;;;;;;;;
3;2018-03-05;10:20:53.657000;type1;training;train;1 3 4 - 1 - 1 2 - 1 3 - 2 3;1 3 4 - 1 - 1 2 - 1 3 - 2 3;1;0.6572868669;11;8;done;4;1 3;2 3;325.526
;;;;;;;;;;;;;;;;
3;2018-03-05;10:20:53.657000;type1;training;train;1 3 4 - 1 - 1 2 - 1 3 - 2 3;1 3 4 - 1 - 1 2 - 1 3 - 2 3;1;0.7179843593;12;9;done;0;0;1 3 4;1107.328
;;;;;;;;;;;;;;;;
3;2018-03-05;10:20:53.657000;type1;training;train;1 3 4 - 1 - 1 2 - 1 3 - 2 3;1 3 4 - 1 - 1 2 - 1 3 - 2 3;1;0.7179843593;12;9;done;1;1 3 4;1;369.032
;;;;;;;;;;;;;;;;
3;2018-03-05;10:20:53.657000;type1;training;train;1 3 4 - 1 - 1 2 - 1 3 - 2 3;1 3 4 - 1 - 1 2 - 1 3 - 2 3;1;0.7179843593;12;9;done;2;1;1 2;384.128
;;;;;;;;;;;;;;;;
3;2018-03-05;10:20:53.657000;type1;training;train;1 3 4 - 1 - 1 2 - 1 3 - 2 3;1 3 4 - 1 - 1 2 - 1 3 - 2 3;1;0.7179843593;12;9;done;3;1 2;1 3;352.828
;;;;;;;;;;;;;;;;
3;2018-03-05;10:20:53.657000;type1;training;train;1 3 4 - 1 - 1 2 - 1 3 - 2 3;1 3 4 - 1 - 1 2 - 1 3 - 2 3;1;0.7179843593;12;9;done;4;1 3;2 3;286.799
;;;;;;;;;;;;;;;;
3;2018-03-05;10:20:53.657000;type1;training;train;1 3 4 - 1 - 1 2 - 1 3 - 2 3;1 3 4 - 1 - 1 2 - 1 3 - 2 3;1;0.6925072428;13;10;done;0;0;1 3 4;576.17
;;;;;;;;;;;;;;;;
3;2018-03-05;10:20:53.657000;type1;training;train;1 3 4 - 1 - 1 2 - 1 3 - 2 3;1 3 4 - 1 - 1 2 - 1 3 - 2 3;1;0.6925072428;13;10;done;1;1 3 4;1;369.174
;;;;;;;;;;;;;;;;
3;2018-03-05;10:20:53.657000;type1;training;train;1 3 4 - 1 - 1 2 - 1 3 - 2 3;1 3 4 - 1 - 1 2 - 1 3 - 2 3;1;0.6925072428;13;10;done;2;1;1 2;376.753
;;;;;;;;;;;;;;;;
3;2018-03-05;10:20:53.657000;type1;training;train;1 3 4 - 1 - 1 2 - 1 3 - 2 3;1 3 4 - 1 - 1 2 - 1 3 - 2 3;1;0.6925072428;13;10;done;3;1 2;1 3;377.066
;;;;;;;;;;;;;;;;
3;2018-03-05;10:20:53.657000;type1;training;train;1 3 4 - 1 - 1 2 - 1 3 - 2 3;1 3 4 - 1 - 1 2 - 1 3 - 2 3;1;0.6925072428;13;10;done;4;1 3;2 3;321.036
;;;;;;;;;;;;;;;;
3;2018-03-05;10:20:53.657000;type1;training;train;1 3 4 - 1 - 1 2 - 1 3 - 2 3;1 3 4 - 1 - 1 2 - 1 3 - 2 3;1;0.7002450752;14;11;done;0;0;1 3 4;1179.629
;;;;;;;;;;;;;;;;
3;2018-03-05;10:20:53.657000;type1;training;train;1 3 4 - 1 - 1 2 - 1 3 - 2 3;1 3 4 - 1 - 1 2 - 1 3 - 2 3;1;0.7002450752;14;11;done;1;1 3 4;1;398.188
;;;;;;;;;;;;;;;;
3;2018-03-05;10:20:53.657000;type1;training;train;1 3 4 - 1 - 1 2 - 1 3 - 2 3;1 3 4 - 1 - 1 2 - 1 3 - 2 3;1;0.7002450752;14;11;done;2;1;1 2;356.27
;;;;;;;;;;;;;;;;
3;2018-03-05;10:20:53.657000;type1;training;train;1 3 4 - 1 - 1 2 - 1 3 - 2 3;1 3 4 - 1 - 1 2 - 1 3 - 2 3;1;0.7002450752;14;11;done;3;1 2;1 3;337.446
;;;;;;;;;;;;;;;;
3;2018-03-05;10:20:53.657000;type1;training;train;1 3 4 - 1 - 1 2 - 1 3 - 2 3;1 3 4 - 1 - 1 2 - 1 3 - 2 3;1;0.7002450752;14;11;done;4;1 3;2 3;336.167
;;;;;;;;;;;;;;;;
3;2018-03-05;10:20:53.657000;type1;training;train;3 4 - 1 2 3 - 1 3 4 - 4 - 1 4;3 4 - 1 - 2 3 - 3 4 - 1;0.2;0.6153911543;1;1;done;0;0;3 4;2139.049
;;;;;;;;;;;;;;;;
3;2018-03-05;10:20:53.657000;type1;training;train;3 4 - 1 2 3 - 1 3 4 - 4 - 1 4;3 4 - 1 - 2 3 - 3 4 - 1;0.2;0.6153911543;1;1;done;1;3 4;1;1013.129
;;;;;;;;;;;;;;;;
3;2018-03-05;10:20:53.657000;type1;training;train;3 4 - 1 2 3 - 1 3 4 - 4 - 1 4;3 4 - 1 - 2 3 - 3 4 - 1;0.2;0.6153911543;1;1;done;2;1;2 3;15.44
;;;;;;;;;;;;;;;;
3;2018-03-05;10:20:53.657000;type1;training;train;3 4 - 1 2 3 - 1 3 4 - 4 - 1 4;3 4 - 1 - 2 3 - 3 4 - 1;0.2;0.6153911543;1;1;done;3;2 3;3 4;579.108
;;;;;;;;;;;;;;;;
3;2018-03-05;10:20:53.657000;type1;training;train;3 4 - 1 2 3 - 1 3 4 - 4 - 1 4;3 4 - 1 - 2 3 - 3 4 - 1;0.2;0.6153911543;1;1;done;4;3 4;1;17.305
;;;;;;;;;;;;;;;;
3;2018-03-05;10:20:53.657000;type1;training;train;3 4 - 1 2 3 - 1 3 4 - 4 - 1 4;3 4 - 1 2 3 - 1 3 4 - 4 - 1 4;1;0.6520902766;2;2;done;0;0;3 4;896.522
;;;;;;;;;;;;;;;;
3;2018-03-05;10:20:53.657000;type1;training;train;3 4 - 1 2 3 - 1 3 4 - 4 - 1 4;3 4 - 1 2 3 - 1 3 4 - 4 - 1 4;1;0.6520902766;2;2;done;1;3 4;1 2 3;359.774
;;;;;;;;;;;;;;;;
3;2018-03-05;10:20:53.657000;type1;training;train;3 4 - 1 2 3 - 1 3 4 - 4 - 1 4;3 4 - 1 2 3 - 1 3 4 - 4 - 1 4;1;0.6520902766;2;2;done;2;1 2 3;1 3 4;500.291
;;;;;;;;;;;;;;;;
3;2018-03-05;10:20:53.657000;type1;training;train;3 4 - 1 2 3 - 1 3 4 - 4 - 1 4;3 4 - 1 2 3 - 1 3 4 - 4 - 1 4;1;0.6520902766;2;2;done;3;1 3 4;4;386.603
;;;;;;;;;;;;;;;;
3;2018-03-05;10:20:53.657000;type1;training;train;3 4 - 1 2 3 - 1 3 4 - 4 - 1 4;3 4 - 1 2 3 - 1 3 4 - 4 - 1 4;1;0.6520902766;2;2;done;4;4;1 4;286.862
;;;;;;;;;;;;;;;;
3;2018-03-05;10:20:53.657000;type1;training;train;3 4 - 1 2 3 - 1 3 4 - 4 - 1 4;1 2 3 3 4 - 3 4 - 1 2 3 - 1 3 4 - 1 4 4;0;0.3863775748;3;2;done;0;0;1 2 3 3 4;-146.762
;;;;;;;;;;;;;;;;
3;2018-03-05;10:20:53.657000;type1;training;train;3 4 - 1 2 3 - 1 3 4 - 4 - 1 4;1 2 3 3 4 - 3 4 - 1 2 3 - 1 3 4 - 1 4 4;0;0.3863775748;3;2;done;1;1 2 3 3 4;3 4;791.847
;;;;;;;;;;;;;;;;
3;2018-03-05;10:20:53.657000;type1;training;train;3 4 - 1 2 3 - 1 3 4 - 4 - 1 4;1 2 3 3 4 - 3 4 - 1 2 3 - 1 3 4 - 1 4 4;0;0.3863775748;3;2;done;2;3 4;1 2 3;487.68
;;;;;;;;;;;;;;;;
3;2018-03-05;10:20:53.657000;type1;training;train;3 4 - 1 2 3 - 1 3 4 - 4 - 1 4;1 2 3 3 4 - 3 4 - 1 2 3 - 1 3 4 - 1 4 4;0;0.3863775748;3;2;done;3;1 2 3;1 3 4;596.255
;;;;;;;;;;;;;;;;
3;2018-03-05;10:20:53.657000;type1;training;train;3 4 - 1 2 3 - 1 3 4 - 4 - 1 4;1 2 3 3 4 - 3 4 - 1 2 3 - 1 3 4 - 1 4 4;0;0.3863775748;3;2;done;4;1 3 4;1 4 4;712.359
;;;;;;;;;;;;;;;;
3;2018-03-05;10:20:53.657000;type1;training;train;3 4 - 1 2 3 - 1 3 4 - 4 - 1 4;3 4 - 1 2 3 - 1 3 4 - 4 - 1 4;1;0.6309235619;4;3;done;0;0;3 4;782.846
;;;;;;;;;;;;;;;;
3;2018-03-05;10:20:53.657000;type1;training;train;3 4 - 1 2 3 - 1 3 4 - 4 - 1 4;3 4 - 1 2 3 - 1 3 4 - 4 - 1 4;1;0.6309235619;4;3;done;1;3 4;1 2 3;389.872
;;;;;;;;;;;;;;;;
3;2018-03-05;10:20:53.657000;type1;training;train;3 4 - 1 2 3 - 1 3 4 - 4 - 1 4;3 4 - 1 2 3 - 1 3 4 - 4 - 1 4;1;0.6309235619;4;3;done;2;1 2 3;1 3 4;473.037
;;;;;;;;;;;;;;;;
3;2018-03-05;10:20:53.657000;type1;training;train;3 4 - 1 2 3 - 1 3 4 - 4 - 1 4;3 4 - 1 2 3 - 1 3 4 - 4 - 1 4;1;0.6309235619;4;3;done;3;1 3 4;4;385.495
;;;;;;;;;;;;;;;;
3;2018-03-05;10:20:53.657000;type1;training;train;3 4 - 1 2 3 - 1 3 4 - 4 - 1 4;3 4 - 1 2 3 - 1 3 4 - 4 - 1 4;1;0.6309235619;4;3;done;4;4;1 4;336.574
;;;;;;;;;;;;;;;;
3;2018-03-05;10:20:53.657000;type1;training;train;3 4 - 1 2 3 - 1 3 4 - 4 - 1 4;3 4 - 1 2 3 - 1 3 4 - 3 4 - 1 4;0.8;0.6546618859;5;3;done;0;0;3 4;998.175
;;;;;;;;;;;;;;;;
3;2018-03-05;10:20:53.657000;type1;training;train;3 4 - 1 2 3 - 1 3 4 - 4 - 1 4;3 4 - 1 2 3 - 1 3 4 - 3 4 - 1 4;0.8;0.6546618859;5;3;done;1;3 4;1 2 3;357.858
;;;;;;;;;;;;;;;;
3;2018-03-05;10:20:53.657000;type1;training;train;3 4 - 1 2 3 - 1 3 4 - 4 - 1 4;3 4 - 1 2 3 - 1 3 4 - 3 4 - 1 4;0.8;0.6546618859;5;3;done;2;1 2 3;1 3 4;373.491
;;;;;;;;;;;;;;;;
3;2018-03-05;10:20:53.657000;type1;training;train;3 4 - 1 2 3 - 1 3 4 - 4 - 1 4;3 4 - 1 2 3 - 1 3 4 - 3 4 - 1 4;0.8;0.6546618859;5;3;done;3;1 3 4;3 4;400.751
;;;;;;;;;;;;;;;;
3;2018-03-05;10:20:53.657000;type1;training;train;3 4 - 1 2 3 - 1 3 4 - 4 - 1 4;3 4 - 1 2 3 - 1 3 4 - 3 4 - 1 4;0.8;0.6546618859;5;3;done;4;3 4;1 4;395.407
;;;;;;;;;;;;;;;;
3;2018-03-05;10:20:53.657000;type1;training;train;3 4 - 1 2 3 - 1 3 4 - 4 - 1 4;3 4 - 1 3 - 3 4 - 4 - 1 4;0.6;0.5188500772;6;3;done;0;0;3 4;1253.893
;;;;;;;;;;;;;;;;
3;2018-03-05;10:20:53.657000;type1;training;train;3 4 - 1 2 3 - 1 3 4 - 4 - 1 4;3 4 - 1 3 - 3 4 - 4 - 1 4;0.6;0.5188500772;6;3;done;1;3 4;1 3;358.089
;;;;;;;;;;;;;;;;
3;2018-03-05;10:20:53.657000;type1;training;train;3 4 - 1 2 3 - 1 3 4 - 4 - 1 4;3 4 - 1 3 - 3 4 - 4 - 1 4;0.6;0.5188500772;6;3;done;2;1 3;3 4;982.349
;;;;;;;;;;;;;;;;
3;2018-03-05;10:20:53.657000;type1;training;train;3 4 - 1 2 3 - 1 3 4 - 4 - 1 4;3 4 - 1 3 - 3 4 - 4 - 1 4;0.6;0.5188500772;6;3;done;3;3 4;4;343.88
;;;;;;;;;;;;;;;;
3;2018-03-05;10:20:53.657000;type1;training;train;3 4 - 1 2 3 - 1 3 4 - 4 - 1 4;3 4 - 1 3 - 3 4 - 4 - 1 4;0.6;0.5188500772;6;3;done;4;4;1 4;243.022
;;;;;;;;;;;;;;;;
3;2018-03-05;10:20:53.657000;type1;training;train;3 4 - 1 2 3 - 1 3 4 - 4 - 1 4;3 4 - 1 2 3 - 1 3 4 - 4 - 1 4;1;0.6562914859;7;4;done;0;0;3 4;1093.474
;;;;;;;;;;;;;;;;
3;2018-03-05;10:20:53.657000;type1;training;train;3 4 - 1 2 3 - 1 3 4 - 4 - 1 4;3 4 - 1 2 3 - 1 3 4 - 4 - 1 4;1;0.6562914859;7;4;done;1;3 4;1 2 3;383.302
;;;;;;;;;;;;;;;;
3;2018-03-05;10:20:53.657000;type1;training;train;3 4 - 1 2 3 - 1 3 4 - 4 - 1 4;3 4 - 1 2 3 - 1 3 4 - 4 - 1 4;1;0.6562914859;7;4;done;2;1 2 3;1 3 4;468.826
;;;;;;;;;;;;;;;;
3;2018-03-05;10:20:53.657000;type1;training;train;3 4 - 1 2 3 - 1 3 4 - 4 - 1 4;3 4 - 1 2 3 - 1 3 4 - 4 - 1 4;1;0.6562914859;7;4;done;3;1 3 4;4;403.089
;;;;;;;;;;;;;;;;
3;2018-03-05;10:20:53.657000;type1;training;train;3 4 - 1 2 3 - 1 3 4 - 4 - 1 4;3 4 - 1 2 3 - 1 3 4 - 4 - 1 4;1;0.6562914859;7;4;done;4;4;1 4;268.495
;;;;;;;;;;;;;;;;
3;2018-03-05;10:20:53.657000;type1;training;train;3 4 - 1 2 3 - 1 3 4 - 4 - 1 4;3 4 - 1 2 3 - 1 3 4 - 4 - 1 4;1;0.4263553326;8;5;done;0;0;3 4;1082.813
;;;;;;;;;;;;;;;;
3;2018-03-05;10:20:53.657000;type1;training;train;3 4 - 1 2 3 - 1 3 4 - 4 - 1 4;3 4 - 1 2 3 - 1 3 4 - 4 - 1 4;1;0.4263553326;8;5;done;1;3 4;1 2 3;489.051
;;;;;;;;;;;;;;;;
3;2018-03-05;10:20:53.657000;type1;training;train;3 4 - 1 2 3 - 1 3 4 - 4 - 1 4;3 4 - 1 2 3 - 1 3 4 - 4 - 1 4;1;0.4263553326;8;5;done;2;1 2 3;1 3 4;580.193
;;;;;;;;;;;;;;;;
3;2018-03-05;10:20:53.657000;type1;training;train;3 4 - 1 2 3 - 1 3 4 - 4 - 1 4;3 4 - 1 2 3 - 1 3 4 - 4 - 1 4;1;0.4263553326;8;5;done;3;1 3 4;4;1022.999
;;;;;;;;;;;;;;;;
3;2018-03-05;10:20:53.657000;type1;training;train;3 4 - 1 2 3 - 1 3 4 - 4 - 1 4;3 4 - 1 2 3 - 1 3 4 - 4 - 1 4;1;0.4263553326;8;5;done;4;4;1 4;253.219
;;;;;;;;;;;;;;;;
3;2018-03-05;10:20:53.657000;type1;training;train;3 4 - 1 2 3 - 1 3 4 - 4 - 1 4;3 4 - 1 2 3 - 3 - 4 - 1;0.6;1.2540845022;9;5;done;0;0;3 4;2917.562
;;;;;;;;;;;;;;;;
3;2018-03-05;10:20:53.657000;type1;training;train;3 4 - 1 2 3 - 1 3 4 - 4 - 1 4;3 4 - 1 2 3 - 3 - 4 - 1;0.6;1.2540845022;9;5;done;1;3 4;1 2 3;395.624
;;;;;;;;;;;;;;;;
3;2018-03-05;10:20:53.657000;type1;training;train;3 4 - 1 2 3 - 1 3 4 - 4 - 1 4;3 4 - 1 2 3 - 3 - 4 - 1;0.6;1.2540845022;9;5;done;2;1 2 3;3;347.787
;;;;;;;;;;;;;;;;
3;2018-03-05;10:20:53.657000;type1;training;train;3 4 - 1 2 3 - 1 3 4 - 4 - 1 4;3 4 - 1 2 3 - 3 - 4 - 1;0.6;1.2540845022;9;5;done;3;3;4;24.719
;;;;;;;;;;;;;;;;
3;2018-03-05;10:20:53.657000;type1;training;train;3 4 - 1 2 3 - 1 3 4 - 4 - 1 4;3 4 - 1 2 3 - 3 - 4 - 1;0.6;1.2540845022;9;5;done;4;4;1;29.264
;;;;;;;;;;;;;;;;
3;2018-03-05;10:20:53.657000;type1;training;train;3 4 - 1 2 3 - 1 3 4 - 4 - 1 4;3 4 - 1 2 3 - 1 3 4 - 4 - 1 4;1;0.6551088562;10;6;done;0;0;3 4;804.154
;;;;;;;;;;;;;;;;
3;2018-03-05;10:20:53.657000;type1;training;train;3 4 - 1 2 3 - 1 3 4 - 4 - 1 4;3 4 - 1 2 3 - 1 3 4 - 4 - 1 4;1;0.6551088562;10;6;done;1;3 4;1 2 3;299.711
;;;;;;;;;;;;;;;;
3;2018-03-05;10:20:53.657000;type1;training;train;3 4 - 1 2 3 - 1 3 4 - 4 - 1 4;3 4 - 1 2 3 - 1 3 4 - 4 - 1 4;1;0.6551088562;10;6;done;2;1 2 3;1 3 4;493.813
;;;;;;;;;;;;;;;;
3;2018-03-05;10:20:53.657000;type1;training;train;3 4 - 1 2 3 - 1 3 4 - 4 - 1 4;3 4 - 1 2 3 - 1 3 4 - 4 - 1 4;1;0.6551088562;10;6;done;3;1 3 4;4;475.577
;;;;;;;;;;;;;;;;
3;2018-03-05;10:20:53.657000;type1;training;train;3 4 - 1 2 3 - 1 3 4 - 4 - 1 4;3 4 - 1 2 3 - 1 3 4 - 4 - 1 4;1;0.6551088562;10;6;done;4;4;1 4;257.363
;;;;;;;;;;;;;;;;
3;2018-03-05;10:20:53.657000;type1;training;train;3 4 - 1 2 3 - 1 3 4 - 4 - 1 4;3 4 - 1 2 3 - 3 4 - 4 - 1 4;0.8;0.5104340025;11;6;done;0;0;3 4;1134.157
;;;;;;;;;;;;;;;;
3;2018-03-05;10:20:53.657000;type1;training;train;3 4 - 1 2 3 - 1 3 4 - 4 - 1 4;3 4 - 1 2 3 - 3 4 - 4 - 1 4;0.8;0.5104340025;11;6;done;1;3 4;1 2 3;356.84
;;;;;;;;;;;;;;;;
3;2018-03-05;10:20:53.657000;type1;training;train;3 4 - 1 2 3 - 1 3 4 - 4 - 1 4;3 4 - 1 2 3 - 3 4 - 4 - 1 4;0.8;0.5104340025;11;6;done;2;1 2 3;3 4;616.267
;;;;;;;;;;;;;;;;
3;2018-03-05;10:20:53.657000;type1;training;train;3 4 - 1 2 3 - 1 3 4 - 4 - 1 4;3 4 - 1 2 3 - 3 4 - 4 - 1 4;0.8;0.5104340025;11;6;done;3;3 4;4;651.074
;;;;;;;;;;;;;;;;
3;2018-03-05;10:20:53.657000;type1;training;train;3 4 - 1 2 3 - 1 3 4 - 4 - 1 4;3 4 - 1 2 3 - 3 4 - 4 - 1 4;0.8;0.5104340025;11;6;done;4;4;1 4;334.937
;;;;;;;;;;;;;;;;
3;2018-03-05;10:20:53.657000;type1;training;train;3 4 - 1 2 3 - 1 3 4 - 4 - 1 4;3 4 - 1 2 3 - 1 3 4 - 4 - 1 4;1;0.6833532056;12;7;done;0;0;3 4;1065.388
;;;;;;;;;;;;;;;;
3;2018-03-05;10:20:53.657000;type1;training;train;3 4 - 1 2 3 - 1 3 4 - 4 - 1 4;3 4 - 1 2 3 - 1 3 4 - 4 - 1 4;1;0.6833532056;12;7;done;1;3 4;1 2 3;366.43
;;;;;;;;;;;;;;;;
3;2018-03-05;10:20:53.657000;type1;training;train;3 4 - 1 2 3 - 1 3 4 - 4 - 1 4;3 4 - 1 2 3 - 1 3 4 - 4 - 1 4;1;0.6833532056;12;7;done;2;1 2 3;1 3 4;459.256
;;;;;;;;;;;;;;;;
3;2018-03-05;10:20:53.657000;type1;training;train;3 4 - 1 2 3 - 1 3 4 - 4 - 1 4;3 4 - 1 2 3 - 1 3 4 - 4 - 1 4;1;0.6833532056;12;7;done;3;1 3 4;4;357.741
;;;;;;;;;;;;;;;;
3;2018-03-05;10:20:53.657000;type1;training;train;3 4 - 1 2 3 - 1 3 4 - 4 - 1 4;3 4 - 1 2 3 - 1 3 4 - 4 - 1 4;1;0.6833532056;12;7;done;4;4;1 4;279.945
;;;;;;;;;;;;;;;;
3;2018-03-05;10:20:53.657000;type1;training;train;3 4 - 1 2 3 - 1 3 4 - 4 - 1 4;3 4 - 1 2 3 - 1 3 4 - 4 - 1 4;1;0.7014300139;13;8;done;0;0;3 4;1109.562
;;;;;;;;;;;;;;;;
3;2018-03-05;10:20:53.657000;type1;training;train;3 4 - 1 2 3 - 1 3 4 - 4 - 1 4;3 4 - 1 2 3 - 1 3 4 - 4 - 1 4;1;0.7014300139;13;8;done;1;3 4;1 2 3;341.962
;;;;;;;;;;;;;;;;
3;2018-03-05;10:20:53.657000;type1;training;train;3 4 - 1 2 3 - 1 3 4 - 4 - 1 4;3 4 - 1 2 3 - 1 3 4 - 4 - 1 4;1;0.7014300139;13;8;done;2;1 2 3;1 3 4;439.676
;;;;;;;;;;;;;;;;
3;2018-03-05;10:20:53.657000;type1;training;train;3 4 - 1 2 3 - 1 3 4 - 4 - 1 4;3 4 - 1 2 3 - 1 3 4 - 4 - 1 4;1;0.7014300139;13;8;done;3;1 3 4;4;350.832
;;;;;;;;;;;;;;;;
3;2018-03-05;10:20:53.657000;type1;training;train;3 4 - 1 2 3 - 1 3 4 - 4 - 1 4;3 4 - 1 2 3 - 1 3 4 - 4 - 1 4;1;0.7014300139;13;8;done;4;4;1 4;293.189
;;;;;;;;;;;;;;;;
3;2018-03-05;10:20:53.657000;type1;training;train;3 4 - 1 2 3 - 1 3 4 - 4 - 1 4;3 4 - 1 2 3 - 1 3 4 - 4 - 1 4;1;0.7060868515;14;9;done;0;0;3 4;1158.251
;;;;;;;;;;;;;;;;
3;2018-03-05;10:20:53.657000;type1;training;train;3 4 - 1 2 3 - 1 3 4 - 4 - 1 4;3 4 - 1 2 3 - 1 3 4 - 4 - 1 4;1;0.7060868515;14;9;done;1;3 4;1 2 3;329.738
;;;;;;;;;;;;;;;;
3;2018-03-05;10:20:53.657000;type1;training;train;3 4 - 1 2 3 - 1 3 4 - 4 - 1 4;3 4 - 1 2 3 - 1 3 4 - 4 - 1 4;1;0.7060868515;14;9;done;2;1 2 3;1 3 4;417.826
;;;;;;;;;;;;;;;;
3;2018-03-05;10:20:53.657000;type1;training;train;3 4 - 1 2 3 - 1 3 4 - 4 - 1 4;3 4 - 1 2 3 - 1 3 4 - 4 - 1 4;1;0.7060868515;14;9;done;3;1 3 4;4;394.723
;;;;;;;;;;;;;;;;
3;2018-03-05;10:20:53.657000;type1;training;train;3 4 - 1 2 3 - 1 3 4 - 4 - 1 4;3 4 - 1 2 3 - 1 3 4 - 4 - 1 4;1;0.7060868515;14;9;done;4;4;1 4;273.969
;;;;;;;;;;;;;;;;
3;2018-03-05;10:20:53.657000;type1;training;train;3 4 - 1 2 3 - 1 3 4 - 4 - 1 4;3 4 - 1 2 3 - 1 3 4 - 4 - 1 4;1;0.6791600838;15;10;done;0;0;3 4;1292.041
;;;;;;;;;;;;;;;;
3;2018-03-05;10:20:53.657000;type1;training;train;3 4 - 1 2 3 - 1 3 4 - 4 - 1 4;3 4 - 1 2 3 - 1 3 4 - 4 - 1 4;1;0.6791600838;15;10;done;1;3 4;1 2 3;341.078
;;;;;;;;;;;;;;;;
3;2018-03-05;10:20:53.657000;type1;training;train;3 4 - 1 2 3 - 1 3 4 - 4 - 1 4;3 4 - 1 2 3 - 1 3 4 - 4 - 1 4;1;0.6791600838;15;10;done;2;1 2 3;1 3 4;430.701
;;;;;;;;;;;;;;;;
3;2018-03-05;10:20:53.657000;type1;training;train;3 4 - 1 2 3 - 1 3 4 - 4 - 1 4;3 4 - 1 2 3 - 1 3 4 - 4 - 1 4;1;0.6791600838;15;10;done;3;1 3 4;4;368.297
;;;;;;;;;;;;;;;;
3;2018-03-05;10:20:53.657000;type1;training;train;3 4 - 1 2 3 - 1 3 4 - 4 - 1 4;3 4 - 1 2 3 - 1 3 4 - 4 - 1 4;1;0.6791600838;15;10;done;4;4;1 4;332.332
;;;;;;;;;;;;;;;;
3;2018-03-05;10:20:53.657000;type1;training;train;3 4 - 1 2 3 - 1 3 4 - 4 - 1 4;3 4 - 1 2 3 - 1 3 4 - 4 - 1 4;1;0.6931809979;16;11;done;0;0;3 4;1111.521
;;;;;;;;;;;;;;;;
3;2018-03-05;10:20:53.657000;type1;training;train;3 4 - 1 2 3 - 1 3 4 - 4 - 1 4;3 4 - 1 2 3 - 1 3 4 - 4 - 1 4;1;0.6931809979;16;11;done;1;3 4;1 2 3;366.939
;;;;;;;;;;;;;;;;
3;2018-03-05;10:20:53.657000;type1;training;train;3 4 - 1 2 3 - 1 3 4 - 4 - 1 4;3 4 - 1 2 3 - 1 3 4 - 4 - 1 4;1;0.6931809979;16;11;done;2;1 2 3;1 3 4;437.736
;;;;;;;;;;;;;;;;
3;2018-03-05;10:20:53.657000;type1;training;train;3 4 - 1 2 3 - 1 3 4 - 4 - 1 4;3 4 - 1 2 3 - 1 3 4 - 4 - 1 4;1;0.6931809979;16;11;done;3;1 3 4;4;351.936
;;;;;;;;;;;;;;;;
3;2018-03-05;10:20:53.657000;type1;training;train;3 4 - 1 2 3 - 1 3 4 - 4 - 1 4;3 4 - 1 2 3 - 1 3 4 - 4 - 1 4;1;0.6931809979;16;11;done;4;4;1 4;286.014
;;;;;;;;;;;;;;;;
4;2018-03-05;21:03:55.938000;type1;training;train;1 3 4 - 1 - 1 2 - 1 3 - 2 3;1 3 4 - 1 - 1 2 - 1 3 - 2 3;1;0.5573181898;1;2;done;0;0;1 3 4;2069.16
;;;;;;;;;;;;;;;;
4;2018-03-05;21:03:55.938000;type1;training;train;1 3 4 - 1 - 1 2 - 1 3 - 2 3;1 3 4 - 1 - 1 2 - 1 3 - 2 3;1;0.5573181898;1;2;done;1;1 3 4;1;519.823
;;;;;;;;;;;;;;;;
4;2018-03-05;21:03:55.938000;type1;training;train;1 3 4 - 1 - 1 2 - 1 3 - 2 3;1 3 4 - 1 - 1 2 - 1 3 - 2 3;1;0.5573181898;1;2;done;2;1;1 2;468.541
;;;;;;;;;;;;;;;;
4;2018-03-05;21:03:55.938000;type1;training;train;1 3 4 - 1 - 1 2 - 1 3 - 2 3;1 3 4 - 1 - 1 2 - 1 3 - 2 3;1;0.5573181898;1;2;done;3;1 2;1 3;395.391
;;;;;;;;;;;;;;;;
4;2018-03-05;21:03:55.938000;type1;training;train;1 3 4 - 1 - 1 2 - 1 3 - 2 3;1 3 4 - 1 - 1 2 - 1 3 - 2 3;1;0.5573181898;1;2;done;4;1 3;2 3;410.552
;;;;;;;;;;;;;;;;
4;2018-03-05;21:03:55.938000;type1;training;train;1 3 4 - 1 - 1 2 - 1 3 - 2 3;3 4 - 1 - 1 2 - 1 3 - 2 3;0.8;0;2;2;done;0;0;3 4;1301.524
;;;;;;;;;;;;;;;;
4;2018-03-05;21:03:55.938000;type1;training;train;1 3 4 - 1 - 1 2 - 1 3 - 2 3;3 4 - 1 - 1 2 - 1 3 - 2 3;0.8;0;2;2;done;1;3 4;1;1378.503
;;;;;;;;;;;;;;;;
4;2018-03-05;21:03:55.938000;type1;training;train;1 3 4 - 1 - 1 2 - 1 3 - 2 3;3 4 - 1 - 1 2 - 1 3 - 2 3;0.8;0;2;2;done;2;1;1 2;644.531
;;;;;;;;;;;;;;;;
4;2018-03-05;21:03:55.938000;type1;training;train;1 3 4 - 1 - 1 2 - 1 3 - 2 3;3 4 - 1 - 1 2 - 1 3 - 2 3;0.8;0;2;2;done;3;1 2;1 3;338.703
;;;;;;;;;;;;;;;;
4;2018-03-05;21:03:55.938000;type1;training;train;1 3 4 - 1 - 1 2 - 1 3 - 2 3;3 4 - 1 - 1 2 - 1 3 - 2 3;0.8;0;2;2;done;4;1 3;2 3;314.784
;;;;;;;;;;;;;;;;
4;2018-03-05;21:03:55.938000;type1;training;train;1 3 4 - 1 - 1 2 - 1 3 - 2 3;1 3 4 - 1 - 1 2 - 1 3 - 2 3;1;0.5836364866;3;3;done;0;0;1 3 4;878.307
;;;;;;;;;;;;;;;;
4;2018-03-05;21:03:55.938000;type1;training;train;1 3 4 - 1 - 1 2 - 1 3 - 2 3;1 3 4 - 1 - 1 2 - 1 3 - 2 3;1;0.5836364866;3;3;done;1;1 3 4;1;431.3
;;;;;;;;;;;;;;;;
4;2018-03-05;21:03:55.938000;type1;training;train;1 3 4 - 1 - 1 2 - 1 3 - 2 3;1 3 4 - 1 - 1 2 - 1 3 - 2 3;1;0.5836364866;3;3;done;2;1;1 2;400.566
;;;;;;;;;;;;;;;;
4;2018-03-05;21:03:55.938000;type1;training;train;1 3 4 - 1 - 1 2 - 1 3 - 2 3;1 3 4 - 1 - 1 2 - 1 3 - 2 3;1;0.5836364866;3;3;done;3;1 2;1 3;468.67
;;;;;;;;;;;;;;;;
4;2018-03-05;21:03:55.938000;type1;training;train;1 3 4 - 1 - 1 2 - 1 3 - 2 3;1 3 4 - 1 - 1 2 - 1 3 - 2 3;1;0.5836364866;3;3;done;4;1 3;2 3;412.859
;;;;;;;;;;;;;;;;
4;2018-03-05;21:03:55.938000;type1;training;train;1 3 4 - 1 - 1 2 - 1 3 - 2 3;1 4 - 3 - 1 - 1 2 - 1 3;0;0;4;3;done;0;0;1 4;991.966
;;;;;;;;;;;;;;;;
4;2018-03-05;21:03:55.938000;type1;training;train;1 3 4 - 1 - 1 2 - 1 3 - 2 3;1 4 - 3 - 1 - 1 2 - 1 3;0;0;4;3;done;1;1 4;3;14.864
;;;;;;;;;;;;;;;;
4;2018-03-05;21:03:55.938000;type1;training;train;1 3 4 - 1 - 1 2 - 1 3 - 2 3;1 4 - 3 - 1 - 1 2 - 1 3;0;0;4;3;done;2;3;1;1099.584
;;;;;;;;;;;;;;;;
4;2018-03-05;21:03:55.938000;type1;training;train;1 3 4 - 1 - 1 2 - 1 3 - 2 3;1 4 - 3 - 1 - 1 2 - 1 3;0;0;4;3;done;3;1;1 2;1315.222
;;;;;;;;;;;;;;;;
4;2018-03-05;21:03:55.938000;type1;training;train;1 3 4 - 1 - 1 2 - 1 3 - 2 3;1 4 - 3 - 1 - 1 2 - 1 3;0;0;4;3;done;4;1 2;1 3;373.44
;;;;;;;;;;;;;;;;
4;2018-03-05;21:03:55.938000;type1;training;train;1 3 4 - 1 - 1 2 - 1 3 - 2 3;1 4 - 1 - 1 2 - 3 - 1;0.4;0;5;3;done;0;0;1 4;1550.264
;;;;;;;;;;;;;;;;
4;2018-03-05;21:03:55.938000;type1;training;train;1 3 4 - 1 - 1 2 - 1 3 - 2 3;1 4 - 1 - 1 2 - 3 - 1;0.4;0;5;3;done;1;1 4;1;440.344
;;;;;;;;;;;;;;;;
4;2018-03-05;21:03:55.938000;type1;training;train;1 3 4 - 1 - 1 2 - 1 3 - 2 3;1 4 - 1 - 1 2 - 3 - 1;0.4;0;5;3;done;2;1;1 2;1449.766
;;;;;;;;;;;;;;;;
4;2018-03-05;21:03:55.938000;type1;training;train;1 3 4 - 1 - 1 2 - 1 3 - 2 3;1 4 - 1 - 1 2 - 3 - 1;0.4;0;5;3;done;3;1 2;3;343.966
;;;;;;;;;;;;;;;;
4;2018-03-05;21:03:55.938000;type1;training;train;1 3 4 - 1 - 1 2 - 1 3 - 2 3;1 4 - 1 - 1 2 - 3 - 1;0.4;0;5;3;done;4;3;1;11.556
;;;;;;;;;;;;;;;;
4;2018-03-05;21:03:55.938000;type1;training;train;1 3 4 - 1 - 1 2 - 1 3 - 2 3;1 3 4 - 1 - 1 2 - 1 3 - 2 3;1;0.6505192689;6;4;done;0;0;1 3 4;757.04
;;;;;;;;;;;;;;;;
4;2018-03-05;21:03:55.938000;type1;training;train;1 3 4 - 1 - 1 2 - 1 3 - 2 3;1 3 4 - 1 - 1 2 - 1 3 - 2 3;1;0.6505192689;6;4;done;1;1 3 4;1;436.199
;;;;;;;;;;;;;;;;
4;2018-03-05;21:03:55.938000;type1;training;train;1 3 4 - 1 - 1 2 - 1 3 - 2 3;1 3 4 - 1 - 1 2 - 1 3 - 2 3;1;0.6505192689;6;4;done;2;1;1 2;340.691
;;;;;;;;;;;;;;;;
4;2018-03-05;21:03:55.938000;type1;training;train;1 3 4 - 1 - 1 2 - 1 3 - 2 3;1 3 4 - 1 - 1 2 - 1 3 - 2 3;1;0.6505192689;6;4;done;3;1 2;1 3;401.541
;;;;;;;;;;;;;;;;
4;2018-03-05;21:03:55.938000;type1;training;train;1 3 4 - 1 - 1 2 - 1 3 - 2 3;1 3 4 - 1 - 1 2 - 1 3 - 2 3;1;0.6505192689;6;4;done;4;1 3;2 3;358.804
;;;;;;;;;;;;;;;;
4;2018-03-05;21:03:55.938000;type1;training;train;1 3 4 - 1 - 1 2 - 1 3 - 2 3;1 4 - 1 - 1 2 - 1 3 - 2 3;0.8;0;7;4;done;0;0;1 4;1012.766
;;;;;;;;;;;;;;;;
4;2018-03-05;21:03:55.938000;type1;training;train;1 3 4 - 1 - 1 2 - 1 3 - 2 3;1 4 - 1 - 1 2 - 1 3 - 2 3;0.8;0;7;4;done;1;1 4;1;366.174
;;;;;;;;;;;;;;;;
4;2018-03-05;21:03:55.938000;type1;training;train;1 3 4 - 1 - 1 2 - 1 3 - 2 3;1 4 - 1 - 1 2 - 1 3 - 2 3;0.8;0;7;4;done;2;1;1 2;322.937
;;;;;;;;;;;;;;;;
4;2018-03-05;21:03:55.938000;type1;training;train;1 3 4 - 1 - 1 2 - 1 3 - 2 3;1 4 - 1 - 1 2 - 1 3 - 2 3;0.8;0;7;4;done;3;1 2;1 3;328.333
;;;;;;;;;;;;;;;;
4;2018-03-05;21:03:55.938000;type1;training;train;1 3 4 - 1 - 1 2 - 1 3 - 2 3;1 4 - 1 - 1 2 - 1 3 - 2 3;0.8;0;7;4;done;4;1 3;2 3;325.542
;;;;;;;;;;;;;;;;
4;2018-03-05;21:03:55.938000;type1;training;train;1 3 4 - 1 - 1 2 - 1 3 - 2 3;1 4 - 1 - 1 2 - 1 3 - 2 3;0.8;0;8;4;done;0;0;1 4;615.275
;;;;;;;;;;;;;;;;
4;2018-03-05;21:03:55.938000;type1;training;train;1 3 4 - 1 - 1 2 - 1 3 - 2 3;1 4 - 1 - 1 2 - 1 3 - 2 3;0.8;0;8;4;done;1;1 4;1;393.577
;;;;;;;;;;;;;;;;
4;2018-03-05;21:03:55.938000;type1;training;train;1 3 4 - 1 - 1 2 - 1 3 - 2 3;1 4 - 1 - 1 2 - 1 3 - 2 3;0.8;0;8;4;done;2;1;1 2;364.723
;;;;;;;;;;;;;;;;
4;2018-03-05;21:03:55.938000;type1;training;train;1 3 4 - 1 - 1 2 - 1 3 - 2 3;1 4 - 1 - 1 2 - 1 3 - 2 3;0.8;0;8;4;done;3;1 2;1 3;380.338
;;;;;;;;;;;;;;;;
4;2018-03-05;21:03:55.938000;type1;training;train;1 3 4 - 1 - 1 2 - 1 3 - 2 3;1 4 - 1 - 1 2 - 1 3 - 2 3;0.8;0;8;4;done;4;1 3;2 3;340.311
;;;;;;;;;;;;;;;;
4;2018-03-05;21:03:55.938000;type1;training;train;1 3 4 - 1 - 1 2 - 1 3 - 2 3;1 3 4 - 1 - 1 2 - 1 3 - 2 3;1;0.5486888188;9;5;done;0;0;1 3 4;752.921
;;;;;;;;;;;;;;;;
4;2018-03-05;21:03:55.938000;type1;training;train;1 3 4 - 1 - 1 2 - 1 3 - 2 3;1 3 4 - 1 - 1 2 - 1 3 - 2 3;1;0.5486888188;9;5;done;1;1 3 4;1;394.153
;;;;;;;;;;;;;;;;
4;2018-03-05;21:03:55.938000;type1;training;train;1 3 4 - 1 - 1 2 - 1 3 - 2 3;1 3 4 - 1 - 1 2 - 1 3 - 2 3;1;0.5486888188;9;5;done;2;1;1 2;419.567
;;;;;;;;;;;;;;;;
4;2018-03-05;21:03:55.938000;type1;training;train;1 3 4 - 1 - 1 2 - 1 3 - 2 3;1 3 4 - 1 - 1 2 - 1 3 - 2 3;1;0.5486888188;9;5;done;3;1 2;1 3;610.772
;;;;;;;;;;;;;;;;
4;2018-03-05;21:03:55.938000;type1;training;train;1 3 4 - 1 - 1 2 - 1 3 - 2 3;1 3 4 - 1 - 1 2 - 1 3 - 2 3;1;0.5486888188;9;5;done;4;1 3;2 3;398.035
;;;;;;;;;;;;;;;;
